{
    "resourceType": "Bundle",
    "type": "batch",
    "entry": [
        {
            "fullUrl": "urn:uuid:04be7a5c-a121-4e80-b6ce-35949b1f05fa",
            "resource": {
                "resourceType": "Location",
                "id": "location-0",
                "name": "Berlin"
            },
            "request": {
                "method": "POST",
                "url": "Location"
            }
        },
        {
            "fullUrl": "urn:uuid:09bd0c02-87be-424a-a130-1d528985e4d8",
            "resource": {
                "resourceType": "Observation",
                "id": "covid-cases-0",
                "status": "final",
                "category": [
                    {
                        "coding": [
                            {
                                "system": "http://terminology.hl7.org/CodeSystem/observation-category",
                                "code": "laboratory"
                            }
                        ]
                    }
                ],
                "code": {
                    "coding": [
                        {
                            "system": "http://loinc.org",
                            "code": "94500-6",
                            "display": "COVID-19 cases"
                        }
                    ]
                },
                "subject": {
                    "reference": "Location/location-0"
                },
                "issued": "2024-01-24T09:21:48.901630+00:00",
                "valueQuantity": {
                    "value": 1150345,
                    "unit": "cases",
                    "system": "http://unitsofmeasure.org",
                    "code": "{cases}"
                }
            },
            "request": {
                "method": "POST",
                "url": "Observation"
            }
        },
        {
            "fullUrl": "urn:uuid:bc464d59-9a1a-440a-ad14-9e6d392b51ee",
            "resource": {
                "resourceType": "Observation",
                "id": "covid-deaths-0",
                "status": "final",
                "category": [
                    {
                        "coding": [
                            {
                                "system": "http://terminology.hl7.org/CodeSystem/observation-category",
                                "code": "laboratory"
                            }
                        ]
                    }
                ],
                "code": {
                    "coding": [
                        {
                            "system": "http://loinc.org",
                            "code": "94762-2",
                            "display": "COVID-19 deaths"
                        }
                    ]
                },
                "subject": {
                    "reference": "Location/location-0"
                },
                "issued": "2024-01-24T09:21:48.901630+00:00",
                "valueQuantity": {
                    "value": 350000,
                    "unit": "deaths",
                    "system": "http://unitsofmeasure.org",
                    "code": "{deaths}"
                }
            },
            "request": {
                "method": "POST",
                "url": "Observation"
            }
        },
        {
            "fullUrl": "urn:uuid:6fab8ac4-bfa0-412b-add7-e9dd2a29fc1b",
            "resource": {
                "resourceType": "Location",
                "id": "location-1",
                "name": "Stuttgart"
            },
            "request": {
                "method": "POST",
                "url": "Location"
            }
        },
        {
            "fullUrl": "urn:uuid:6bee4a92-7e21-4ac0-aa08-db5d858e7321",
            "resource": {
                "resourceType": "Observation",
                "id": "covid-cases-1",
                "status": "final",
                "category": [
                    {
                        "coding": [
                            {
                                "system": "http://terminology.hl7.org/CodeSystem/observation-category",
                                "code": "laboratory"
                            }
                        ]
                    }
                ],
                "code": {
                    "coding": [
                        {
                            "system": "http://loinc.org",
                            "code": "94500-6",
                            "display": "COVID-19 cases"
                        }
                    ]
                },
                "subject": {
                    "reference": "Location/location-1"
                },
                "issued": "2024-01-24T09:21:48.934358+00:00",
                "valueQuantity": {
                    "value": 1050746,
                    "unit": "cases",
                    "system": "http://unitsofmeasure.org",
                    "code": "{cases}"
                }
            },
            "request": {
                "method": "POST",
                "url": "Observation"
            }
        },
        {
            "fullUrl": "urn:uuid:f1633705-5c33-4437-b8cb-128e7a387dd1",
            "resource": {
                "resourceType": "Observation",
                "id": "covid-deaths-1",
                "status": "final",
                "category": [
                    {
                        "coding": [
                            {
                                "system": "http://terminology.hl7.org/CodeSystem/observation-category",
                                "code": "laboratory"
                            }
                        ]
                    }
                ],
                "code": {
                    "coding": [
                        {
                            "system": "http://loinc.org",
                            "code": "94762-2",
                            "display": "COVID-19 deaths"
                        }
                    ]
                },
                "subject": {
                    "reference": "Location/location-1"
                },
                "issued": "2024-01-24T09:21:48.934358+00:00",
                "valueQuantity": {
                    "value": 330420,
                    "unit": "deaths",
                    "system": "http://unitsofmeasure.org",
                    "code": "{deaths}"
                }
            },
            "request": {
                "method": "POST",
                "url": "Observation"
            }
        },
        {
            "fullUrl": "urn:uuid:f4bff6f5-30eb-4943-a609-ce9ff1688467",
            "resource": {
                "resourceType": "Location",
                "id": "location-2",
                "name": "Munich"
            },
            "request": {
                "method": "POST",
                "url": "Location"
            }
        },
        {
            "fullUrl": "urn:uuid:68bea2a7-aa28-40cb-982b-c5d044e2cfc1",
            "resource": {
                "resourceType": "Observation",
                "id": "covid-cases-2",
                "status": "final",
                "category": [
                    {
                        "coding": [
                            {
                                "system": "http://terminology.hl7.org/CodeSystem/observation-category",
                                "code": "laboratory"
                            }
                        ]
                    }
                ],
                "code": {
                    "coding": [
                        {
                            "system": "http://loinc.org",
                            "code": "94500-6",
                            "display": "COVID-19 cases"
                        }
                    ]
                },
                "subject": {
                    "reference": "Location/location-2"
                },
                "issued": "2024-01-24T09:21:48.935538+00:00",
                "valueQuantity": {
                    "value": 900530,
                    "unit": "cases",
                    "system": "http://unitsofmeasure.org",
                    "code": "{cases}"
                }
            },
            "request": {
                "method": "POST",
                "url": "Observation"
            }
        },
        {
            "fullUrl": "urn:uuid:080442dc-aa29-4e09-9c04-f32ac941bdbc",
            "resource": {
                "resourceType": "Observation",
                "id": "covid-deaths-2",
                "status": "final",
                "category": [
                    {
                        "coding": [
                            {
                                "system": "http://terminology.hl7.org/CodeSystem/observation-category",
                                "code": "laboratory"
                            }
                        ]
                    }
                ],
                "code": {
                    "coding": [
                        {
                            "system": "http://loinc.org",
                            "code": "94762-2",
                            "display": "COVID-19 deaths"
                        }
                    ]
                },
                "subject": {
                    "reference": "Location/location-2"
                },
                "issued": "2024-01-24T09:21:48.935538+00:00",
                "valueQuantity": {
                    "value": 305438,
                    "unit": "deaths",
                    "system": "http://unitsofmeasure.org",
                    "code": "{deaths}"
                }
            },
            "request": {
                "method": "POST",
                "url": "Observation"
            }
        },
        {
            "fullUrl": "urn:uuid:4e64ebf1-4f2c-478f-8d83-87f5114fbc3a",
            "resource": {
                "resourceType": "Location",
                "id": "location-3",
                "name": "Hamburg"
            },
            "request": {
                "method": "POST",
                "url": "Location"
            }
        },
        {
            "fullUrl": "urn:uuid:a1dff062-2730-4840-af4d-3da4cb53c5ce",
            "resource": {
                "resourceType": "Observation",
                "id": "covid-cases-3",
                "status": "final",
                "category": [
                    {
                        "coding": [
                            {
                                "system": "http://terminology.hl7.org/CodeSystem/observation-category",
                                "code": "laboratory"
                            }
                        ]
                    }
                ],
                "code": {
                    "coding": [
                        {
                            "system": "http://loinc.org",
                            "code": "94500-6",
                            "display": "COVID-19 cases"
                        }
                    ]
                },
                "subject": {
                    "reference": "Location/location-3"
                },
                "issued": "2024-01-24T09:21:48.936908+00:00",
                "valueQuantity": {
                    "value": 1093489,
                    "unit": "cases",
                    "system": "http://unitsofmeasure.org",
                    "code": "{cases}"
                }
            },
            "request": {
                "method": "POST",
                "url": "Observation"
            }
        },
        {
            "fullUrl": "urn:uuid:b6f823d0-6cbc-466c-bf0a-51a079bed454",
            "resource": {
                "resourceType": "Observation",
                "id": "covid-deaths-3",
                "status": "final",
                "category": [
                    {
                        "coding": [
                            {
                                "system": "http://terminology.hl7.org/CodeSystem/observation-category",
                                "code": "laboratory"
                            }
                        ]
                    }
                ],
                "code": {
                    "coding": [
                        {
                            "system": "http://loinc.org",
                            "code": "94762-2",
                            "display": "COVID-19 deaths"
                        }
                    ]
                },
                "subject": {
                    "reference": "Location/location-3"
                },
                "issued": "2024-01-24T09:21:48.936908+00:00",
                "valueQuantity": {
                    "value": 300420,
                    "unit": "deaths",
                    "system": "http://unitsofmeasure.org",
                    "code": "{deaths}"
                }
            },
            "request": {
                "method": "POST",
                "url": "Observation"
            }
        },
        {
            "fullUrl": "urn:uuid:55674f14-3fe4-4370-aeec-931e2d84b418",
            "resource": {
                "resourceType": "Location",
                "id": "location-4",
                "name": "Cologne"
            },
            "request": {
                "method": "POST",
                "url": "Location"
            }
        },
        {
            "fullUrl": "urn:uuid:66b122ed-0c3d-41af-a096-a874c16aedb9",
            "resource": {
                "resourceType": "Observation",
                "id": "covid-cases-4",
                "status": "final",
                "category": [
                    {
                        "coding": [
                            {
                                "system": "http://terminology.hl7.org/CodeSystem/observation-category",
                                "code": "laboratory"
                            }
                        ]
                    }
                ],
                "code": {
                    "coding": [
                        {
                            "system": "http://loinc.org",
                            "code": "94500-6",
                            "display": "COVID-19 cases"
                        }
                    ]
                },
                "subject": {
                    "reference": "Location/location-4"
                },
                "issued": "2024-01-24T09:21:48.938053+00:00",
                "valueQuantity": {
                    "value": 400300,
                    "unit": "cases",
                    "system": "http://unitsofmeasure.org",
                    "code": "{cases}"
                }
            },
            "request": {
                "method": "POST",
                "url": "Observation"
            }
        },
        {
            "fullUrl": "urn:uuid:13374224-211d-4849-a658-af79aca455ca",
            "resource": {
                "resourceType": "Observation",
                "id": "covid-deaths-4",
                "status": "final",
                "category": [
                    {
                        "coding": [
                            {
                                "system": "http://terminology.hl7.org/CodeSystem/observation-category",
                                "code": "laboratory"
                            }
                        ]
                    }
                ],
                "code": {
                    "coding": [
                        {
                            "system": "http://loinc.org",
                            "code": "94762-2",
                            "display": "COVID-19 deaths"
                        }
                    ]
                },
                "subject": {
                    "reference": "Location/location-4"
                },
                "issued": "2024-01-24T09:21:48.938053+00:00",
                "valueQuantity": {
                    "value": 120500,
                    "unit": "deaths",
                    "system": "http://unitsofmeasure.org",
                    "code": "{deaths}"
                }
            },
            "request": {
                "method": "POST",
                "url": "Observation"
            }
        },
        {
            "fullUrl": "urn:uuid:c3e7b73e-53e1-460f-8a59-afe5018e5596",
            "resource": {
                "resourceType": "Location",
                "id": "location-5",
                "name": "Frankfurt"
            },
            "request": {
                "method": "POST",
                "url": "Location"
            }
        },
        {
            "fullUrl": "urn:uuid:a7b7754c-f2d0-4cae-978d-a83e8024dbee",
            "resource": {
                "resourceType": "Observation",
                "id": "covid-cases-5",
                "status": "final",
                "category": [
                    {
                        "coding": [
                            {
                                "system": "http://terminology.hl7.org/CodeSystem/observation-category",
                                "code": "laboratory"
                            }
                        ]
                    }
                ],
                "code": {
                    "coding": [
                        {
                            "system": "http://loinc.org",
                            "code": "94500-6",
                            "display": "COVID-19 cases"
                        }
                    ]
                },
                "subject": {
                    "reference": "Location/location-5"
                },
                "issued": "2024-01-24T09:21:48.939351+00:00",
                "valueQuantity": {
                    "value": 300670,
                    "unit": "cases",
                    "system": "http://unitsofmeasure.org",
                    "code": "{cases}"
                }
            },
            "request": {
                "method": "POST",
                "url": "Observation"
            }
        },
        {
            "fullUrl": "urn:uuid:c27f8837-dfbf-419e-a5ae-b88a6687e9ad",
            "resource": {
                "resourceType": "Observation",
                "id": "covid-deaths-5",
                "status": "final",
                "category": [
                    {
                        "coding": [
                            {
                                "system": "http://terminology.hl7.org/CodeSystem/observation-category",
                                "code": "laboratory"
                            }
                        ]
                    }
                ],
                "code": {
                    "coding": [
                        {
                            "system": "http://loinc.org",
                            "code": "94762-2",
                            "display": "COVID-19 deaths"
                        }
                    ]
                },
                "subject": {
                    "reference": "Location/location-5"
                },
                "issued": "2024-01-24T09:21:48.939351+00:00",
                "valueQuantity": {
                    "value": 103410,
                    "unit": "deaths",
                    "system": "http://unitsofmeasure.org",
                    "code": "{deaths}"
                }
            },
            "request": {
                "method": "POST",
                "url": "Observation"
            }
        },
        {
            "fullUrl": "urn:uuid:2270cd9d-42ae-40f4-8c64-d91af04cc8b6",
            "resource": {
                "resourceType": "Location",
                "id": "location-6",
                "name": "Dusseldorf"
            },
            "request": {
                "method": "POST",
                "url": "Location"
            }
        },
        {
            "fullUrl": "urn:uuid:7b2a3f69-911e-447f-9424-9d0493477242",
            "resource": {
                "resourceType": "Observation",
                "id": "covid-cases-6",
                "status": "final",
                "category": [
                    {
                        "coding": [
                            {
                                "system": "http://terminology.hl7.org/CodeSystem/observation-category",
                                "code": "laboratory"
                            }
                        ]
                    }
                ],
                "code": {
                    "coding": [
                        {
                            "system": "http://loinc.org",
                            "code": "94500-6",
                            "display": "COVID-19 cases"
                        }
                    ]
                },
                "subject": {
                    "reference": "Location/location-6"
                },
                "issued": "2024-01-24T09:21:48.940481+00:00",
                "valueQuantity": {
                    "value": 250865,
                    "unit": "cases",
                    "system": "http://unitsofmeasure.org",
                    "code": "{cases}"
                }
            },
            "request": {
                "method": "POST",
                "url": "Observation"
            }
        },
        {
            "fullUrl": "urn:uuid:d14dc337-a965-410d-8ac8-17b4f0d36d85",
            "resource": {
                "resourceType": "Observation",
                "id": "covid-deaths-6",
                "status": "final",
                "category": [
                    {
                        "coding": [
                            {
                                "system": "http://terminology.hl7.org/CodeSystem/observation-category",
                                "code": "laboratory"
                            }
                        ]
                    }
                ],
                "code": {
                    "coding": [
                        {
                            "system": "http://loinc.org",
                            "code": "94762-2",
                            "display": "COVID-19 deaths"
                        }
                    ]
                },
                "subject": {
                    "reference": "Location/location-6"
                },
                "issued": "2024-01-24T09:21:48.940481+00:00",
                "valueQuantity": {
                    "value": 80400,
                    "unit": "deaths",
                    "system": "http://unitsofmeasure.org",
                    "code": "{deaths}"
                }
            },
            "request": {
                "method": "POST",
                "url": "Observation"
            }
        },
        {
            "fullUrl": "urn:uuid:85a0a76c-850e-4777-b8ad-f05561bb7c0a",
            "resource": {
                "resourceType": "Location",
                "id": "location-7",
                "name": "Leipzig"
            },
            "request": {
                "method": "POST",
                "url": "Location"
            }
        },
        {
            "fullUrl": "urn:uuid:2d403326-ddef-482f-be00-c5dfaad20427",
            "resource": {
                "resourceType": "Observation",
                "id": "covid-cases-7",
                "status": "final",
                "category": [
                    {
                        "coding": [
                            {
                                "system": "http://terminology.hl7.org/CodeSystem/observation-category",
                                "code": "laboratory"
                            }
                        ]
                    }
                ],
                "code": {
                    "coding": [
                        {
                            "system": "http://loinc.org",
                            "code": "94500-6",
                            "display": "COVID-19 cases"
                        }
                    ]
                },
                "subject": {
                    "reference": "Location/location-7"
                },
                "issued": "2024-01-24T09:21:48.942184+00:00",
                "valueQuantity": {
                    "value": 240897,
                    "unit": "cases",
                    "system": "http://unitsofmeasure.org",
                    "code": "{cases}"
                }
            },
            "request": {
                "method": "POST",
                "url": "Observation"
            }
        },
        {
            "fullUrl": "urn:uuid:dedde9eb-db9d-4525-af9d-767d0c753d26",
            "resource": {
                "resourceType": "Observation",
                "id": "covid-deaths-7",
                "status": "final",
                "category": [
                    {
                        "coding": [
                            {
                                "system": "http://terminology.hl7.org/CodeSystem/observation-category",
                                "code": "laboratory"
                            }
                        ]
                    }
                ],
                "code": {
                    "coding": [
                        {
                            "system": "http://loinc.org",
                            "code": "94762-2",
                            "display": "COVID-19 deaths"
                        }
                    ]
                },
                "subject": {
                    "reference": "Location/location-7"
                },
                "issued": "2024-01-24T09:21:48.942184+00:00",
                "valueQuantity": {
                    "value": 75680,
                    "unit": "deaths",
                    "system": "http://unitsofmeasure.org",
                    "code": "{deaths}"
                }
            },
            "request": {
                "method": "POST",
                "url": "Observation"
            }
        },
        {
            "fullUrl": "urn:uuid:de6b8994-9f45-47bf-ab52-c1db6511258a",
            "resource": {
                "resourceType": "Location",
                "id": "location-8",
                "name": "Dortmund"
            },
            "request": {
                "method": "POST",
                "url": "Location"
            }
        },
        {
            "fullUrl": "urn:uuid:e22b5444-12a6-4db4-9cfb-cb2b801f48ba",
            "resource": {
                "resourceType": "Observation",
                "id": "covid-cases-8",
                "status": "final",
                "category": [
                    {
                        "coding": [
                            {
                                "system": "http://terminology.hl7.org/CodeSystem/observation-category",
                                "code": "laboratory"
                            }
                        ]
                    }
                ],
                "code": {
                    "coding": [
                        {
                            "system": "http://loinc.org",
                            "code": "94500-6",
                            "display": "COVID-19 cases"
                        }
                    ]
                },
                "subject": {
                    "reference": "Location/location-8"
                },
                "issued": "2024-01-24T09:21:48.943751+00:00",
                "valueQuantity": {
                    "value": 236780,
                    "unit": "cases",
                    "system": "http://unitsofmeasure.org",
                    "code": "{cases}"
                }
            },
            "request": {
                "method": "POST",
                "url": "Observation"
            }
        },
        {
            "fullUrl": "urn:uuid:320f0566-c605-4707-935b-c2664627da6e",
            "resource": {
                "resourceType": "Observation",
                "id": "covid-deaths-8",
                "status": "final",
                "category": [
                    {
                        "coding": [
                            {
                                "system": "http://terminology.hl7.org/CodeSystem/observation-category",
                                "code": "laboratory"
                            }
                        ]
                    }
                ],
                "code": {
                    "coding": [
                        {
                            "system": "http://loinc.org",
                            "code": "94762-2",
                            "display": "COVID-19 deaths"
                        }
                    ]
                },
                "subject": {
                    "reference": "Location/location-8"
                },
                "issued": "2024-01-24T09:21:48.943751+00:00",
                "valueQuantity": {
                    "value": 72687,
                    "unit": "deaths",
                    "system": "http://unitsofmeasure.org",
                    "code": "{deaths}"
                }
            },
            "request": {
                "method": "POST",
                "url": "Observation"
            }
        },
        {
            "fullUrl": "urn:uuid:e46d25f0-789b-4fe1-8689-18c9a66305f3",
            "resource": {
                "resourceType": "Location",
                "id": "location-9",
                "name": "Essen"
            },
            "request": {
                "method": "POST",
                "url": "Location"
            }
        },
        {
            "fullUrl": "urn:uuid:86d755ea-a4fb-4fc8-ba14-22ebd30208b4",
            "resource": {
                "resourceType": "Observation",
                "id": "covid-cases-9",
                "status": "final",
                "category": [
                    {
                        "coding": [
                            {
                                "system": "http://terminology.hl7.org/CodeSystem/observation-category",
                                "code": "laboratory"
                            }
                        ]
                    }
                ],
                "code": {
                    "coding": [
                        {
                            "system": "http://loinc.org",
                            "code": "94500-6",
                            "display": "COVID-19 cases"
                        }
                    ]
                },
                "subject": {
                    "reference": "Location/location-9"
                },
                "issued": "2024-01-24T09:21:48.944887+00:00",
                "valueQuantity": {
                    "value": 218950,
                    "unit": "cases",
                    "system": "http://unitsofmeasure.org",
                    "code": "{cases}"
                }
            },
            "request": {
                "method": "POST",
                "url": "Observation"
            }
        },
        {
            "fullUrl": "urn:uuid:a65fc6ff-ca44-4ab3-8268-16868e25073c",
            "resource": {
                "resourceType": "Observation",
                "id": "covid-deaths-9",
                "status": "final",
                "category": [
                    {
                        "coding": [
                            {
                                "system": "http://terminology.hl7.org/CodeSystem/observation-category",
                                "code": "laboratory"
                            }
                        ]
                    }
                ],
                "code": {
                    "coding": [
                        {
                            "system": "http://loinc.org",
                            "code": "94762-2",
                            "display": "COVID-19 deaths"
                        }
                    ]
                },
                "subject": {
                    "reference": "Location/location-9"
                },
                "issued": "2024-01-24T09:21:48.944887+00:00",
                "valueQuantity": {
                    "value": 64000,
                    "unit": "deaths",
                    "system": "http://unitsofmeasure.org",
                    "code": "{deaths}"
                }
            },
            "request": {
                "method": "POST",
                "url": "Observation"
            }
        },
        {
            "fullUrl": "urn:uuid:72f0e21b-e8a8-4ffe-ba4e-0322a1471e44",
            "resource": {
                "resourceType": "Location",
                "id": "location-10",
                "name": "Bremen"
            },
            "request": {
                "method": "POST",
                "url": "Location"
            }
        },
        {
            "fullUrl": "urn:uuid:ddfb3910-ea86-472a-b534-8d829442e43e",
            "resource": {
                "resourceType": "Observation",
                "id": "covid-cases-10",
                "status": "final",
                "category": [
                    {
                        "coding": [
                            {
                                "system": "http://terminology.hl7.org/CodeSystem/observation-category",
                                "code": "laboratory"
                            }
                        ]
                    }
                ],
                "code": {
                    "coding": [
                        {
                            "system": "http://loinc.org",
                            "code": "94500-6",
                            "display": "COVID-19 cases"
                        }
                    ]
                },
                "subject": {
                    "reference": "Location/location-10"
                },
                "issued": "2024-01-24T09:21:48.945978+00:00",
                "valueQuantity": {
                    "value": 162970,
                    "unit": "cases",
                    "system": "http://unitsofmeasure.org",
                    "code": "{cases}"
                }
            },
            "request": {
                "method": "POST",
                "url": "Observation"
            }
        },
        {
            "fullUrl": "urn:uuid:b1aae7ab-fa81-42d1-b70c-b27dce42f375",
            "resource": {
                "resourceType": "Observation",
                "id": "covid-deaths-10",
                "status": "final",
                "category": [
                    {
                        "coding": [
                            {
                                "system": "http://terminology.hl7.org/CodeSystem/observation-category",
                                "code": "laboratory"
                            }
                        ]
                    }
                ],
                "code": {
                    "coding": [
                        {
                            "system": "http://loinc.org",
                            "code": "94762-2",
                            "display": "COVID-19 deaths"
                        }
                    ]
                },
                "subject": {
                    "reference": "Location/location-10"
                },
                "issued": "2024-01-24T09:21:48.945978+00:00",
                "valueQuantity": {
                    "value": 30500,
                    "unit": "deaths",
                    "system": "http://unitsofmeasure.org",
                    "code": "{deaths}"
                }
            },
            "request": {
                "method": "POST",
                "url": "Observation"
            }
        },
        {
            "fullUrl": "urn:uuid:52889efe-d1cd-4409-a260-b53b85748791",
            "resource": {
                "resourceType": "Location",
                "id": "location-11",
                "name": "Dresden"
            },
            "request": {
                "method": "POST",
                "url": "Location"
            }
        },
        {
            "fullUrl": "urn:uuid:f1606886-58cf-4f01-b7e7-c6e8a28fff4f",
            "resource": {
                "resourceType": "Observation",
                "id": "covid-cases-11",
                "status": "final",
                "category": [
                    {
                        "coding": [
                            {
                                "system": "http://terminology.hl7.org/CodeSystem/observation-category",
                                "code": "laboratory"
                            }
                        ]
                    }
                ],
                "code": {
                    "coding": [
                        {
                            "system": "http://loinc.org",
                            "code": "94500-6",
                            "display": "COVID-19 cases"
                        }
                    ]
                },
                "subject": {
                    "reference": "Location/location-11"
                },
                "issued": "2024-01-24T09:21:48.947146+00:00",
                "valueQuantity": {
                    "value": 300897,
                    "unit": "cases",
                    "system": "http://unitsofmeasure.org",
                    "code": "{cases}"
                }
            },
            "request": {
                "method": "POST",
                "url": "Observation"
            }
        },
        {
            "fullUrl": "urn:uuid:8cad3112-b2af-454c-a3e8-cdc7ccb78be5",
            "resource": {
                "resourceType": "Observation",
                "id": "covid-deaths-11",
                "status": "final",
                "category": [
                    {
                        "coding": [
                            {
                                "system": "http://terminology.hl7.org/CodeSystem/observation-category",
                                "code": "laboratory"
                            }
                        ]
                    }
                ],
                "code": {
                    "coding": [
                        {
                            "system": "http://loinc.org",
                            "code": "94762-2",
                            "display": "COVID-19 deaths"
                        }
                    ]
                },
                "subject": {
                    "reference": "Location/location-11"
                },
                "issued": "2024-01-24T09:21:48.947146+00:00",
                "valueQuantity": {
                    "value": 55430,
                    "unit": "deaths",
                    "system": "http://unitsofmeasure.org",
                    "code": "{deaths}"
                }
            },
            "request": {
                "method": "POST",
                "url": "Observation"
            }
        },
        {
            "fullUrl": "urn:uuid:450ff807-ffc3-4298-b7bd-c3a790679b0c",
            "resource": {
                "resourceType": "Location",
                "id": "location-12",
                "name": "Hannover"
            },
            "request": {
                "method": "POST",
                "url": "Location"
            }
        },
        {
            "fullUrl": "urn:uuid:c98018e5-71dd-469e-93ef-92aef50c5592",
            "resource": {
                "resourceType": "Observation",
                "id": "covid-cases-12",
                "status": "final",
                "category": [
                    {
                        "coding": [
                            {
                                "system": "http://terminology.hl7.org/CodeSystem/observation-category",
                                "code": "laboratory"
                            }
                        ]
                    }
                ],
                "code": {
                    "coding": [
                        {
                            "system": "http://loinc.org",
                            "code": "94500-6",
                            "display": "COVID-19 cases"
                        }
                    ]
                },
                "subject": {
                    "reference": "Location/location-12"
                },
                "issued": "2024-01-24T09:21:48.948228+00:00",
                "valueQuantity": {
                    "value": 230200,
                    "unit": "cases",
                    "system": "http://unitsofmeasure.org",
                    "code": "{cases}"
                }
            },
            "request": {
                "method": "POST",
                "url": "Observation"
            }
        },
        {
            "fullUrl": "urn:uuid:ab40d3a5-5331-449c-b6bd-b695d8940197",
            "resource": {
                "resourceType": "Observation",
                "id": "covid-deaths-12",
                "status": "final",
                "category": [
                    {
                        "coding": [
                            {
                                "system": "http://terminology.hl7.org/CodeSystem/observation-category",
                                "code": "laboratory"
                            }
                        ]
                    }
                ],
                "code": {
                    "coding": [
                        {
                            "system": "http://loinc.org",
                            "code": "94762-2",
                            "display": "COVID-19 deaths"
                        }
                    ]
                },
                "subject": {
                    "reference": "Location/location-12"
                },
                "issued": "2024-01-24T09:21:48.948228+00:00",
                "valueQuantity": {
                    "value": 14791,
                    "unit": "deaths",
                    "system": "http://unitsofmeasure.org",
                    "code": "{deaths}"
                }
            },
            "request": {
                "method": "POST",
                "url": "Observation"
            }
        },
        {
            "fullUrl": "urn:uuid:bdf90c9d-04e1-47f4-9c00-858b6d051ae6",
            "resource": {
                "resourceType": "Location",
                "id": "location-13",
                "name": "Nuremberg"
            },
            "request": {
                "method": "POST",
                "url": "Location"
            }
        },
        {
            "fullUrl": "urn:uuid:40a31f33-e104-48ba-aa66-9d6e4da8cbcd",
            "resource": {
                "resourceType": "Observation",
                "id": "covid-cases-13",
                "status": "final",
                "category": [
                    {
                        "coding": [
                            {
                                "system": "http://terminology.hl7.org/CodeSystem/observation-category",
                                "code": "laboratory"
                            }
                        ]
                    }
                ],
                "code": {
                    "coding": [
                        {
                            "system": "http://loinc.org",
                            "code": "94500-6",
                            "display": "COVID-19 cases"
                        }
                    ]
                },
                "subject": {
                    "reference": "Location/location-13"
                },
                "issued": "2024-01-24T09:21:48.949994+00:00",
                "valueQuantity": {
                    "value": 150000,
                    "unit": "cases",
                    "system": "http://unitsofmeasure.org",
                    "code": "{cases}"
                }
            },
            "request": {
                "method": "POST",
                "url": "Observation"
            }
        },
        {
            "fullUrl": "urn:uuid:dddb9d85-e4b8-417d-b95d-c6973fd65f8d",
            "resource": {
                "resourceType": "Observation",
                "id": "covid-deaths-13",
                "status": "final",
                "category": [
                    {
                        "coding": [
                            {
                                "system": "http://terminology.hl7.org/CodeSystem/observation-category",
                                "code": "laboratory"
                            }
                        ]
                    }
                ],
                "code": {
                    "coding": [
                        {
                            "system": "http://loinc.org",
                            "code": "94762-2",
                            "display": "COVID-19 deaths"
                        }
                    ]
                },
                "subject": {
                    "reference": "Location/location-13"
                },
                "issued": "2024-01-24T09:21:48.949994+00:00",
                "valueQuantity": {
                    "value": 46457,
                    "unit": "deaths",
                    "system": "http://unitsofmeasure.org",
                    "code": "{deaths}"
                }
            },
            "request": {
                "method": "POST",
                "url": "Observation"
            }
        },
        {
            "fullUrl": "urn:uuid:cb37f941-8bbc-4ea4-9d2d-5a205382b554",
            "resource": {
                "resourceType": "Location",
                "id": "location-14",
                "name": "Duisburg"
            },
            "request": {
                "method": "POST",
                "url": "Location"
            }
        },
        {
            "fullUrl": "urn:uuid:968ce34c-39c6-4461-9fa2-5b6ced34dc10",
            "resource": {
                "resourceType": "Observation",
                "id": "covid-cases-14",
                "status": "final",
                "category": [
                    {
                        "coding": [
                            {
                                "system": "http://terminology.hl7.org/CodeSystem/observation-category",
                                "code": "laboratory"
                            }
                        ]
                    }
                ],
                "code": {
                    "coding": [
                        {
                            "system": "http://loinc.org",
                            "code": "94500-6",
                            "display": "COVID-19 cases"
                        }
                    ]
                },
                "subject": {
                    "reference": "Location/location-14"
                },
                "issued": "2024-01-24T09:21:48.951538+00:00",
                "valueQuantity": {
                    "value": 190670,
                    "unit": "cases",
                    "system": "http://unitsofmeasure.org",
                    "code": "{cases}"
                }
            },
            "request": {
                "method": "POST",
                "url": "Observation"
            }
        },
        {
            "fullUrl": "urn:uuid:ab7875c7-a8cc-4915-8169-e4e327ae2c69",
            "resource": {
                "resourceType": "Observation",
                "id": "covid-deaths-14",
                "status": "final",
                "category": [
                    {
                        "coding": [
                            {
                                "system": "http://terminology.hl7.org/CodeSystem/observation-category",
                                "code": "laboratory"
                            }
                        ]
                    }
                ],
                "code": {
                    "coding": [
                        {
                            "system": "http://loinc.org",
                            "code": "94762-2",
                            "display": "COVID-19 deaths"
                        }
                    ]
                },
                "subject": {
                    "reference": "Location/location-14"
                },
                "issued": "2024-01-24T09:21:48.951538+00:00",
                "valueQuantity": {
                    "value": 32001,
                    "unit": "deaths",
                    "system": "http://unitsofmeasure.org",
                    "code": "{deaths}"
                }
            },
            "request": {
                "method": "POST",
                "url": "Observation"
            }
        },
        {
            "fullUrl": "urn:uuid:7cdc2452-f3fd-4c63-bfef-9fe47221c889",
            "resource": {
                "resourceType": "Location",
                "id": "location-15",
                "name": "Bochum"
            },
            "request": {
                "method": "POST",
                "url": "Location"
            }
        },
        {
            "fullUrl": "urn:uuid:2eeb8439-b61f-4ba7-aeab-b4b23b1c1e60",
            "resource": {
                "resourceType": "Observation",
                "id": "covid-cases-15",
                "status": "final",
                "category": [
                    {
                        "coding": [
                            {
                                "system": "http://terminology.hl7.org/CodeSystem/observation-category",
                                "code": "laboratory"
                            }
                        ]
                    }
                ],
                "code": {
                    "coding": [
                        {
                            "system": "http://loinc.org",
                            "code": "94500-6",
                            "display": "COVID-19 cases"
                        }
                    ]
                },
                "subject": {
                    "reference": "Location/location-15"
                },
                "issued": "2024-01-24T09:21:48.952690+00:00",
                "valueQuantity": {
                    "value": 160785,
                    "unit": "cases",
                    "system": "http://unitsofmeasure.org",
                    "code": "{cases}"
                }
            },
            "request": {
                "method": "POST",
                "url": "Observation"
            }
        },
        {
            "fullUrl": "urn:uuid:f3640b9d-de9a-48bd-b75f-cb69ec68f6e1",
            "resource": {
                "resourceType": "Observation",
                "id": "covid-deaths-15",
                "status": "final",
                "category": [
                    {
                        "coding": [
                            {
                                "system": "http://terminology.hl7.org/CodeSystem/observation-category",
                                "code": "laboratory"
                            }
                        ]
                    }
                ],
                "code": {
                    "coding": [
                        {
                            "system": "http://loinc.org",
                            "code": "94762-2",
                            "display": "COVID-19 deaths"
                        }
                    ]
                },
                "subject": {
                    "reference": "Location/location-15"
                },
                "issued": "2024-01-24T09:21:48.952690+00:00",
                "valueQuantity": {
                    "value": 25095,
                    "unit": "deaths",
                    "system": "http://unitsofmeasure.org",
                    "code": "{deaths}"
                }
            },
            "request": {
                "method": "POST",
                "url": "Observation"
            }
        },
        {
            "fullUrl": "urn:uuid:14b59be7-0712-4e06-aeda-bac7aefe5ac2",
            "resource": {
                "resourceType": "Location",
                "id": "location-16",
                "name": "Wuppertal"
            },
            "request": {
                "method": "POST",
                "url": "Location"
            }
        },
        {
            "fullUrl": "urn:uuid:76a2f573-4108-48b5-94f7-959db5dd44e6",
            "resource": {
                "resourceType": "Observation",
                "id": "covid-cases-16",
                "status": "final",
                "category": [
                    {
                        "coding": [
                            {
                                "system": "http://terminology.hl7.org/CodeSystem/observation-category",
                                "code": "laboratory"
                            }
                        ]
                    }
                ],
                "code": {
                    "coding": [
                        {
                            "system": "http://loinc.org",
                            "code": "94500-6",
                            "display": "COVID-19 cases"
                        }
                    ]
                },
                "subject": {
                    "reference": "Location/location-16"
                },
                "issued": "2024-01-24T09:21:48.954534+00:00",
                "valueQuantity": {
                    "value": 180743,
                    "unit": "cases",
                    "system": "http://unitsofmeasure.org",
                    "code": "{cases}"
                }
            },
            "request": {
                "method": "POST",
                "url": "Observation"
            }
        },
        {
            "fullUrl": "urn:uuid:ca3a8ad5-eeab-4cb7-a89f-a5710a39c8ed",
            "resource": {
                "resourceType": "Observation",
                "id": "covid-deaths-16",
                "status": "final",
                "category": [
                    {
                        "coding": [
                            {
                                "system": "http://terminology.hl7.org/CodeSystem/observation-category",
                                "code": "laboratory"
                            }
                        ]
                    }
                ],
                "code": {
                    "coding": [
                        {
                            "system": "http://loinc.org",
                            "code": "94762-2",
                            "display": "COVID-19 deaths"
                        }
                    ]
                },
                "subject": {
                    "reference": "Location/location-16"
                },
                "issued": "2024-01-24T09:21:48.954534+00:00",
                "valueQuantity": {
                    "value": 36286,
                    "unit": "deaths",
                    "system": "http://unitsofmeasure.org",
                    "code": "{deaths}"
                }
            },
            "request": {
                "method": "POST",
                "url": "Observation"
            }
        },
        {
            "fullUrl": "urn:uuid:08ce1402-8591-4818-9cdc-33f71e3f5d04",
            "resource": {
                "resourceType": "Location",
                "id": "location-17",
                "name": "Bielefeld"
            },
            "request": {
                "method": "POST",
                "url": "Location"
            }
        },
        {
            "fullUrl": "urn:uuid:533eab2c-fda1-44f3-8361-4b06adf60bb9",
            "resource": {
                "resourceType": "Observation",
                "id": "covid-cases-17",
                "status": "final",
                "category": [
                    {
                        "coding": [
                            {
                                "system": "http://terminology.hl7.org/CodeSystem/observation-category",
                                "code": "laboratory"
                            }
                        ]
                    }
                ],
                "code": {
                    "coding": [
                        {
                            "system": "http://loinc.org",
                            "code": "94500-6",
                            "display": "COVID-19 cases"
                        }
                    ]
                },
                "subject": {
                    "reference": "Location/location-17"
                },
                "issued": "2024-01-24T09:21:48.956010+00:00",
                "valueQuantity": {
                    "value": 173500,
                    "unit": "cases",
                    "system": "http://unitsofmeasure.org",
                    "code": "{cases}"
                }
            },
            "request": {
                "method": "POST",
                "url": "Observation"
            }
        },
        {
            "fullUrl": "urn:uuid:efc47292-6a9a-4a5d-bfa3-e4949f2f5fc7",
            "resource": {
                "resourceType": "Observation",
                "id": "covid-deaths-17",
                "status": "final",
                "category": [
                    {
                        "coding": [
                            {
                                "system": "http://terminology.hl7.org/CodeSystem/observation-category",
                                "code": "laboratory"
                            }
                        ]
                    }
                ],
                "code": {
                    "coding": [
                        {
                            "system": "http://loinc.org",
                            "code": "94762-2",
                            "display": "COVID-19 deaths"
                        }
                    ]
                },
                "subject": {
                    "reference": "Location/location-17"
                },
                "issued": "2024-01-24T09:21:48.956010+00:00",
                "valueQuantity": {
                    "value": 34894,
                    "unit": "deaths",
                    "system": "http://unitsofmeasure.org",
                    "code": "{deaths}"
                }
            },
            "request": {
                "method": "POST",
                "url": "Observation"
            }
        },
        {
            "fullUrl": "urn:uuid:6854980f-68b2-4fbb-b3ea-64aeb51b4977",
            "resource": {
                "resourceType": "Location",
                "id": "location-18",
                "name": "Bonn"
            },
            "request": {
                "method": "POST",
                "url": "Location"
            }
        },
        {
            "fullUrl": "urn:uuid:13253695-ad28-4ef5-b485-76f7eb493b40",
            "resource": {
                "resourceType": "Observation",
                "id": "covid-cases-18",
                "status": "final",
                "category": [
                    {
                        "coding": [
                            {
                                "system": "http://terminology.hl7.org/CodeSystem/observation-category",
                                "code": "laboratory"
                            }
                        ]
                    }
                ],
                "code": {
                    "coding": [
                        {
                            "system": "http://loinc.org",
                            "code": "94500-6",
                            "display": "COVID-19 cases"
                        }
                    ]
                },
                "subject": {
                    "reference": "Location/location-18"
                },
                "issued": "2024-01-24T09:21:48.957125+00:00",
                "valueQuantity": {
                    "value": 165420,
                    "unit": "cases",
                    "system": "http://unitsofmeasure.org",
                    "code": "{cases}"
                }
            },
            "request": {
                "method": "POST",
                "url": "Observation"
            }
        },
        {
            "fullUrl": "urn:uuid:abf2b2c4-7112-4e9c-8efd-3a6a7f6af073",
            "resource": {
                "resourceType": "Observation",
                "id": "covid-deaths-18",
                "status": "final",
                "category": [
                    {
                        "coding": [
                            {
                                "system": "http://terminology.hl7.org/CodeSystem/observation-category",
                                "code": "laboratory"
                            }
                        ]
                    }
                ],
                "code": {
                    "coding": [
                        {
                            "system": "http://loinc.org",
                            "code": "94762-2",
                            "display": "COVID-19 deaths"
                        }
                    ]
                },
                "subject": {
                    "reference": "Location/location-18"
                },
                "issued": "2024-01-24T09:21:48.957125+00:00",
                "valueQuantity": {
                    "value": 23484,
                    "unit": "deaths",
                    "system": "http://unitsofmeasure.org",
                    "code": "{deaths}"
                }
            },
            "request": {
                "method": "POST",
                "url": "Observation"
            }
        },
        {
            "fullUrl": "urn:uuid:370ecbde-53f8-4edc-9f60-38b517cf9634",
            "resource": {
                "resourceType": "Location",
                "id": "location-19",
                "name": "Munster"
            },
            "request": {
                "method": "POST",
                "url": "Location"
            }
        },
        {
            "fullUrl": "urn:uuid:bca49b8e-8e71-4a86-bfdd-26ad31bbd2e0",
            "resource": {
                "resourceType": "Observation",
                "id": "covid-cases-19",
                "status": "final",
                "category": [
                    {
                        "coding": [
                            {
                                "system": "http://terminology.hl7.org/CodeSystem/observation-category",
                                "code": "laboratory"
                            }
                        ]
                    }
                ],
                "code": {
                    "coding": [
                        {
                            "system": "http://loinc.org",
                            "code": "94500-6",
                            "display": "COVID-19 cases"
                        }
                    ]
                },
                "subject": {
                    "reference": "Location/location-19"
                },
                "issued": "2024-01-24T09:21:48.958214+00:00",
                "valueQuantity": {
                    "value": 100345,
                    "unit": "cases",
                    "system": "http://unitsofmeasure.org",
                    "code": "{cases}"
                }
            },
            "request": {
                "method": "POST",
                "url": "Observation"
            }
        },
        {
            "fullUrl": "urn:uuid:21f36cb8-8ad0-4e68-86da-e867af1ec3f3",
            "resource": {
                "resourceType": "Observation",
                "id": "covid-deaths-19",
                "status": "final",
                "category": [
                    {
                        "coding": [
                            {
                                "system": "http://terminology.hl7.org/CodeSystem/observation-category",
                                "code": "laboratory"
                            }
                        ]
                    }
                ],
                "code": {
                    "coding": [
                        {
                            "system": "http://loinc.org",
                            "code": "94762-2",
                            "display": "COVID-19 deaths"
                        }
                    ]
                },
                "subject": {
                    "reference": "Location/location-19"
                },
                "issued": "2024-01-24T09:21:48.958214+00:00",
                "valueQuantity": {
                    "value": 28071,
                    "unit": "deaths",
                    "system": "http://unitsofmeasure.org",
                    "code": "{deaths}"
                }
            },
            "request": {
                "method": "POST",
                "url": "Observation"
            }
        },
        {
            "fullUrl": "urn:uuid:9cc84d3a-9164-4e22-8547-17ebd04b4360",
            "resource": {
                "resourceType": "Location",
                "id": "location-20",
                "name": "Mannheim"
            },
            "request": {
                "method": "POST",
                "url": "Location"
            }
        },
        {
            "fullUrl": "urn:uuid:02cc610f-9d40-4b0a-9c5f-e26f9a11748c",
            "resource": {
                "resourceType": "Observation",
                "id": "covid-cases-20",
                "status": "final",
                "category": [
                    {
                        "coding": [
                            {
                                "system": "http://terminology.hl7.org/CodeSystem/observation-category",
                                "code": "laboratory"
                            }
                        ]
                    }
                ],
                "code": {
                    "coding": [
                        {
                            "system": "http://loinc.org",
                            "code": "94500-6",
                            "display": "COVID-19 cases"
                        }
                    ]
                },
                "subject": {
                    "reference": "Location/location-20"
                },
                "issued": "2024-01-24T09:21:48.959286+00:00",
                "valueQuantity": {
                    "value": 110785,
                    "unit": "cases",
                    "system": "http://unitsofmeasure.org",
                    "code": "{cases}"
                }
            },
            "request": {
                "method": "POST",
                "url": "Observation"
            }
        },
        {
            "fullUrl": "urn:uuid:4ad8cce6-423c-414e-8be4-fad10ca09aa3",
            "resource": {
                "resourceType": "Observation",
                "id": "covid-deaths-20",
                "status": "final",
                "category": [
                    {
                        "coding": [
                            {
                                "system": "http://terminology.hl7.org/CodeSystem/observation-category",
                                "code": "laboratory"
                            }
                        ]
                    }
                ],
                "code": {
                    "coding": [
                        {
                            "system": "http://loinc.org",
                            "code": "94762-2",
                            "display": "COVID-19 deaths"
                        }
                    ]
                },
                "subject": {
                    "reference": "Location/location-20"
                },
                "issued": "2024-01-24T09:21:48.959286+00:00",
                "valueQuantity": {
                    "value": 16017,
                    "unit": "deaths",
                    "system": "http://unitsofmeasure.org",
                    "code": "{deaths}"
                }
            },
            "request": {
                "method": "POST",
                "url": "Observation"
            }
        },
        {
            "fullUrl": "urn:uuid:80dcbe3f-f746-486a-a3ae-3d3874ef96bc",
            "resource": {
                "resourceType": "Location",
                "id": "location-21",
                "name": "Karlsruhe"
            },
            "request": {
                "method": "POST",
                "url": "Location"
            }
        },
        {
            "fullUrl": "urn:uuid:993273c0-df10-4eec-b342-97315ea716e5",
            "resource": {
                "resourceType": "Observation",
                "id": "covid-cases-21",
                "status": "final",
                "category": [
                    {
                        "coding": [
                            {
                                "system": "http://terminology.hl7.org/CodeSystem/observation-category",
                                "code": "laboratory"
                            }
                        ]
                    }
                ],
                "code": {
                    "coding": [
                        {
                            "system": "http://loinc.org",
                            "code": "94500-6",
                            "display": "COVID-19 cases"
                        }
                    ]
                },
                "subject": {
                    "reference": "Location/location-21"
                },
                "issued": "2024-01-24T09:21:48.960491+00:00",
                "valueQuantity": {
                    "value": 160142,
                    "unit": "cases",
                    "system": "http://unitsofmeasure.org",
                    "code": "{cases}"
                }
            },
            "request": {
                "method": "POST",
                "url": "Observation"
            }
        },
        {
            "fullUrl": "urn:uuid:baabcac7-b3e9-463b-9b5e-8cc7e3e79e15",
            "resource": {
                "resourceType": "Observation",
                "id": "covid-deaths-21",
                "status": "final",
                "category": [
                    {
                        "coding": [
                            {
                                "system": "http://terminology.hl7.org/CodeSystem/observation-category",
                                "code": "laboratory"
                            }
                        ]
                    }
                ],
                "code": {
                    "coding": [
                        {
                            "system": "http://loinc.org",
                            "code": "94762-2",
                            "display": "COVID-19 deaths"
                        }
                    ]
                },
                "subject": {
                    "reference": "Location/location-21"
                },
                "issued": "2024-01-24T09:21:48.960491+00:00",
                "valueQuantity": {
                    "value": 10149,
                    "unit": "deaths",
                    "system": "http://unitsofmeasure.org",
                    "code": "{deaths}"
                }
            },
            "request": {
                "method": "POST",
                "url": "Observation"
            }
        },
        {
            "fullUrl": "urn:uuid:ef779e7b-0feb-499e-b8d5-3581c3cde556",
            "resource": {
                "resourceType": "Location",
                "id": "location-22",
                "name": "Augsburg"
            },
            "request": {
                "method": "POST",
                "url": "Location"
            }
        },
        {
            "fullUrl": "urn:uuid:6f034654-3b17-4ca3-827a-c27787f80a13",
            "resource": {
                "resourceType": "Observation",
                "id": "covid-cases-22",
                "status": "final",
                "category": [
                    {
                        "coding": [
                            {
                                "system": "http://terminology.hl7.org/CodeSystem/observation-category",
                                "code": "laboratory"
                            }
                        ]
                    }
                ],
                "code": {
                    "coding": [
                        {
                            "system": "http://loinc.org",
                            "code": "94500-6",
                            "display": "COVID-19 cases"
                        }
                    ]
                },
                "subject": {
                    "reference": "Location/location-22"
                },
                "issued": "2024-01-24T09:21:48.961595+00:00",
                "valueQuantity": {
                    "value": 73500,
                    "unit": "cases",
                    "system": "http://unitsofmeasure.org",
                    "code": "{cases}"
                }
            },
            "request": {
                "method": "POST",
                "url": "Observation"
            }
        },
        {
            "fullUrl": "urn:uuid:27df0578-2e3a-4742-85ba-200a31f39c99",
            "resource": {
                "resourceType": "Observation",
                "id": "covid-deaths-22",
                "status": "final",
                "category": [
                    {
                        "coding": [
                            {
                                "system": "http://terminology.hl7.org/CodeSystem/observation-category",
                                "code": "laboratory"
                            }
                        ]
                    }
                ],
                "code": {
                    "coding": [
                        {
                            "system": "http://loinc.org",
                            "code": "94762-2",
                            "display": "COVID-19 deaths"
                        }
                    ]
                },
                "subject": {
                    "reference": "Location/location-22"
                },
                "issued": "2024-01-24T09:21:48.961595+00:00",
                "valueQuantity": {
                    "value": 28219,
                    "unit": "deaths",
                    "system": "http://unitsofmeasure.org",
                    "code": "{deaths}"
                }
            },
            "request": {
                "method": "POST",
                "url": "Observation"
            }
        },
        {
            "fullUrl": "urn:uuid:d249cff9-e51c-4c96-911b-4be8026f8484",
            "resource": {
                "resourceType": "Location",
                "id": "location-23",
                "name": "Wiesbaden"
            },
            "request": {
                "method": "POST",
                "url": "Location"
            }
        },
        {
            "fullUrl": "urn:uuid:d328fe06-fdb2-4232-8ea9-7075e660a807",
            "resource": {
                "resourceType": "Observation",
                "id": "covid-cases-23",
                "status": "final",
                "category": [
                    {
                        "coding": [
                            {
                                "system": "http://terminology.hl7.org/CodeSystem/observation-category",
                                "code": "laboratory"
                            }
                        ]
                    }
                ],
                "code": {
                    "coding": [
                        {
                            "system": "http://loinc.org",
                            "code": "94500-6",
                            "display": "COVID-19 cases"
                        }
                    ]
                },
                "subject": {
                    "reference": "Location/location-23"
                },
                "issued": "2024-01-24T09:21:48.962683+00:00",
                "valueQuantity": {
                    "value": 65420,
                    "unit": "cases",
                    "system": "http://unitsofmeasure.org",
                    "code": "{cases}"
                }
            },
            "request": {
                "method": "POST",
                "url": "Observation"
            }
        },
        {
            "fullUrl": "urn:uuid:ab6e0b23-0b91-4097-a31f-f527d505f3eb",
            "resource": {
                "resourceType": "Observation",
                "id": "covid-deaths-23",
                "status": "final",
                "category": [
                    {
                        "coding": [
                            {
                                "system": "http://terminology.hl7.org/CodeSystem/observation-category",
                                "code": "laboratory"
                            }
                        ]
                    }
                ],
                "code": {
                    "coding": [
                        {
                            "system": "http://loinc.org",
                            "code": "94762-2",
                            "display": "COVID-19 deaths"
                        }
                    ]
                },
                "subject": {
                    "reference": "Location/location-23"
                },
                "issued": "2024-01-24T09:21:48.962683+00:00",
                "valueQuantity": {
                    "value": 41903,
                    "unit": "deaths",
                    "system": "http://unitsofmeasure.org",
                    "code": "{deaths}"
                }
            },
            "request": {
                "method": "POST",
                "url": "Observation"
            }
        },
        {
            "fullUrl": "urn:uuid:fe62dfec-1c13-48bd-96d6-e94d150cf861",
            "resource": {
                "resourceType": "Location",
                "id": "location-24",
                "name": "Munchengladbach"
            },
            "request": {
                "method": "POST",
                "url": "Location"
            }
        },
        {
            "fullUrl": "urn:uuid:a45332cd-fe4d-412e-b1b9-0dd75048b326",
            "resource": {
                "resourceType": "Observation",
                "id": "covid-cases-24",
                "status": "final",
                "category": [
                    {
                        "coding": [
                            {
                                "system": "http://terminology.hl7.org/CodeSystem/observation-category",
                                "code": "laboratory"
                            }
                        ]
                    }
                ],
                "code": {
                    "coding": [
                        {
                            "system": "http://loinc.org",
                            "code": "94500-6",
                            "display": "COVID-19 cases"
                        }
                    ]
                },
                "subject": {
                    "reference": "Location/location-24"
                },
                "issued": "2024-01-24T09:21:48.963899+00:00",
                "valueQuantity": {
                    "value": 40345,
                    "unit": "cases",
                    "system": "http://unitsofmeasure.org",
                    "code": "{cases}"
                }
            },
            "request": {
                "method": "POST",
                "url": "Observation"
            }
        },
        {
            "fullUrl": "urn:uuid:f58fa41f-4768-416f-bcb6-dc749757eb08",
            "resource": {
                "resourceType": "Observation",
                "id": "covid-deaths-24",
                "status": "final",
                "category": [
                    {
                        "coding": [
                            {
                                "system": "http://terminology.hl7.org/CodeSystem/observation-category",
                                "code": "laboratory"
                            }
                        ]
                    }
                ],
                "code": {
                    "coding": [
                        {
                            "system": "http://loinc.org",
                            "code": "94762-2",
                            "display": "COVID-19 deaths"
                        }
                    ]
                },
                "subject": {
                    "reference": "Location/location-24"
                },
                "issued": "2024-01-24T09:21:48.963899+00:00",
                "valueQuantity": {
                    "value": 37652,
                    "unit": "deaths",
                    "system": "http://unitsofmeasure.org",
                    "code": "{deaths}"
                }
            },
            "request": {
                "method": "POST",
                "url": "Observation"
            }
        },
        {
            "fullUrl": "urn:uuid:0f6a6aaf-f1b6-45d4-9ba7-6e8caaf36a0f",
            "resource": {
                "resourceType": "Location",
                "id": "location-25",
                "name": "Gelsenkirchen"
            },
            "request": {
                "method": "POST",
                "url": "Location"
            }
        },
        {
            "fullUrl": "urn:uuid:daee5766-2023-4b73-b8bb-2fe3da95ed6c",
            "resource": {
                "resourceType": "Observation",
                "id": "covid-cases-25",
                "status": "final",
                "category": [
                    {
                        "coding": [
                            {
                                "system": "http://terminology.hl7.org/CodeSystem/observation-category",
                                "code": "laboratory"
                            }
                        ]
                    }
                ],
                "code": {
                    "coding": [
                        {
                            "system": "http://loinc.org",
                            "code": "94500-6",
                            "display": "COVID-19 cases"
                        }
                    ]
                },
                "subject": {
                    "reference": "Location/location-25"
                },
                "issued": "2024-01-24T09:21:48.965026+00:00",
                "valueQuantity": {
                    "value": 80500,
                    "unit": "cases",
                    "system": "http://unitsofmeasure.org",
                    "code": "{cases}"
                }
            },
            "request": {
                "method": "POST",
                "url": "Observation"
            }
        },
        {
            "fullUrl": "urn:uuid:c72c865b-9496-4983-97d1-01210f25a6c0",
            "resource": {
                "resourceType": "Observation",
                "id": "covid-deaths-25",
                "status": "final",
                "category": [
                    {
                        "coding": [
                            {
                                "system": "http://terminology.hl7.org/CodeSystem/observation-category",
                                "code": "laboratory"
                            }
                        ]
                    }
                ],
                "code": {
                    "coding": [
                        {
                            "system": "http://loinc.org",
                            "code": "94762-2",
                            "display": "COVID-19 deaths"
                        }
                    ]
                },
                "subject": {
                    "reference": "Location/location-25"
                },
                "issued": "2024-01-24T09:21:48.965026+00:00",
                "valueQuantity": {
                    "value": 13021,
                    "unit": "deaths",
                    "system": "http://unitsofmeasure.org",
                    "code": "{deaths}"
                }
            },
            "request": {
                "method": "POST",
                "url": "Observation"
            }
        },
        {
            "fullUrl": "urn:uuid:5bbd29c3-7358-4b57-9ed6-f4d46c12cb37",
            "resource": {
                "resourceType": "Location",
                "id": "location-26",
                "name": "Aachen"
            },
            "request": {
                "method": "POST",
                "url": "Location"
            }
        },
        {
            "fullUrl": "urn:uuid:57c91110-c251-4805-9aa0-6ca705158ea3",
            "resource": {
                "resourceType": "Observation",
                "id": "covid-cases-26",
                "status": "final",
                "category": [
                    {
                        "coding": [
                            {
                                "system": "http://terminology.hl7.org/CodeSystem/observation-category",
                                "code": "laboratory"
                            }
                        ]
                    }
                ],
                "code": {
                    "coding": [
                        {
                            "system": "http://loinc.org",
                            "code": "94500-6",
                            "display": "COVID-19 cases"
                        }
                    ]
                },
                "subject": {
                    "reference": "Location/location-26"
                },
                "issued": "2024-01-24T09:21:48.966116+00:00",
                "valueQuantity": {
                    "value": 23500,
                    "unit": "cases",
                    "system": "http://unitsofmeasure.org",
                    "code": "{cases}"
                }
            },
            "request": {
                "method": "POST",
                "url": "Observation"
            }
        },
        {
            "fullUrl": "urn:uuid:0a686481-dc6b-4116-bab3-a5fcc9f71733",
            "resource": {
                "resourceType": "Observation",
                "id": "covid-deaths-26",
                "status": "final",
                "category": [
                    {
                        "coding": [
                            {
                                "system": "http://terminology.hl7.org/CodeSystem/observation-category",
                                "code": "laboratory"
                            }
                        ]
                    }
                ],
                "code": {
                    "coding": [
                        {
                            "system": "http://loinc.org",
                            "code": "94762-2",
                            "display": "COVID-19 deaths"
                        }
                    ]
                },
                "subject": {
                    "reference": "Location/location-26"
                },
                "issued": "2024-01-24T09:21:48.966116+00:00",
                "valueQuantity": {
                    "value": 44514,
                    "unit": "deaths",
                    "system": "http://unitsofmeasure.org",
                    "code": "{deaths}"
                }
            },
            "request": {
                "method": "POST",
                "url": "Observation"
            }
        },
        {
            "fullUrl": "urn:uuid:2777142b-5bcc-478b-8dec-1439ffd47ecc",
            "resource": {
                "resourceType": "Location",
                "id": "location-27",
                "name": "Braunschweig"
            },
            "request": {
                "method": "POST",
                "url": "Location"
            }
        },
        {
            "fullUrl": "urn:uuid:268db40b-7ed4-4821-95f1-4ca174311aab",
            "resource": {
                "resourceType": "Observation",
                "id": "covid-cases-27",
                "status": "final",
                "category": [
                    {
                        "coding": [
                            {
                                "system": "http://terminology.hl7.org/CodeSystem/observation-category",
                                "code": "laboratory"
                            }
                        ]
                    }
                ],
                "code": {
                    "coding": [
                        {
                            "system": "http://loinc.org",
                            "code": "94500-6",
                            "display": "COVID-19 cases"
                        }
                    ]
                },
                "subject": {
                    "reference": "Location/location-27"
                },
                "issued": "2024-01-24T09:21:48.967192+00:00",
                "valueQuantity": {
                    "value": 15420,
                    "unit": "cases",
                    "system": "http://unitsofmeasure.org",
                    "code": "{cases}"
                }
            },
            "request": {
                "method": "POST",
                "url": "Observation"
            }
        },
        {
            "fullUrl": "urn:uuid:15ff8ff1-8c8a-4721-8592-b9f8afe798ad",
            "resource": {
                "resourceType": "Observation",
                "id": "covid-deaths-27",
                "status": "final",
                "category": [
                    {
                        "coding": [
                            {
                                "system": "http://terminology.hl7.org/CodeSystem/observation-category",
                                "code": "laboratory"
                            }
                        ]
                    }
                ],
                "code": {
                    "coding": [
                        {
                            "system": "http://loinc.org",
                            "code": "94762-2",
                            "display": "COVID-19 deaths"
                        }
                    ]
                },
                "subject": {
                    "reference": "Location/location-27"
                },
                "issued": "2024-01-24T09:21:48.967192+00:00",
                "valueQuantity": {
                    "value": 12847,
                    "unit": "deaths",
                    "system": "http://unitsofmeasure.org",
                    "code": "{deaths}"
                }
            },
            "request": {
                "method": "POST",
                "url": "Observation"
            }
        },
        {
            "fullUrl": "urn:uuid:82f7035d-d77d-4bf5-9818-566cf939a231",
            "resource": {
                "resourceType": "Location",
                "id": "location-28",
                "name": "Chemnitz"
            },
            "request": {
                "method": "POST",
                "url": "Location"
            }
        },
        {
            "fullUrl": "urn:uuid:e73701d9-2b60-48cd-9dd6-7728241b95ae",
            "resource": {
                "resourceType": "Observation",
                "id": "covid-cases-28",
                "status": "final",
                "category": [
                    {
                        "coding": [
                            {
                                "system": "http://terminology.hl7.org/CodeSystem/observation-category",
                                "code": "laboratory"
                            }
                        ]
                    }
                ],
                "code": {
                    "coding": [
                        {
                            "system": "http://loinc.org",
                            "code": "94500-6",
                            "display": "COVID-19 cases"
                        }
                    ]
                },
                "subject": {
                    "reference": "Location/location-28"
                },
                "issued": "2024-01-24T09:21:48.969212+00:00",
                "valueQuantity": {
                    "value": 52745,
                    "unit": "cases",
                    "system": "http://unitsofmeasure.org",
                    "code": "{cases}"
                }
            },
            "request": {
                "method": "POST",
                "url": "Observation"
            }
        },
        {
            "fullUrl": "urn:uuid:691aebf4-daa0-43ef-9cbc-72898a4d9e8c",
            "resource": {
                "resourceType": "Observation",
                "id": "covid-deaths-28",
                "status": "final",
                "category": [
                    {
                        "coding": [
                            {
                                "system": "http://terminology.hl7.org/CodeSystem/observation-category",
                                "code": "laboratory"
                            }
                        ]
                    }
                ],
                "code": {
                    "coding": [
                        {
                            "system": "http://loinc.org",
                            "code": "94762-2",
                            "display": "COVID-19 deaths"
                        }
                    ]
                },
                "subject": {
                    "reference": "Location/location-28"
                },
                "issued": "2024-01-24T09:21:48.969212+00:00",
                "valueQuantity": {
                    "value": 33835,
                    "unit": "deaths",
                    "system": "http://unitsofmeasure.org",
                    "code": "{deaths}"
                }
            },
            "request": {
                "method": "POST",
                "url": "Observation"
            }
        },
        {
            "fullUrl": "urn:uuid:8516ae7c-6c52-4297-b36e-5826fe6801df",
            "resource": {
                "resourceType": "Location",
                "id": "location-29",
                "name": "Kiel"
            },
            "request": {
                "method": "POST",
                "url": "Location"
            }
        },
        {
            "fullUrl": "urn:uuid:601aa2d9-3113-40a4-85b1-f092008299c2",
            "resource": {
                "resourceType": "Observation",
                "id": "covid-cases-29",
                "status": "final",
                "category": [
                    {
                        "coding": [
                            {
                                "system": "http://terminology.hl7.org/CodeSystem/observation-category",
                                "code": "laboratory"
                            }
                        ]
                    }
                ],
                "code": {
                    "coding": [
                        {
                            "system": "http://loinc.org",
                            "code": "94500-6",
                            "display": "COVID-19 cases"
                        }
                    ]
                },
                "subject": {
                    "reference": "Location/location-29"
                },
                "issued": "2024-01-24T09:21:48.970305+00:00",
                "valueQuantity": {
                    "value": 22570,
                    "unit": "cases",
                    "system": "http://unitsofmeasure.org",
                    "code": "{cases}"
                }
            },
            "request": {
                "method": "POST",
                "url": "Observation"
            }
        },
        {
            "fullUrl": "urn:uuid:82f4410d-c7ca-4165-bfec-d712543328dd",
            "resource": {
                "resourceType": "Observation",
                "id": "covid-deaths-29",
                "status": "final",
                "category": [
                    {
                        "coding": [
                            {
                                "system": "http://terminology.hl7.org/CodeSystem/observation-category",
                                "code": "laboratory"
                            }
                        ]
                    }
                ],
                "code": {
                    "coding": [
                        {
                            "system": "http://loinc.org",
                            "code": "94762-2",
                            "display": "COVID-19 deaths"
                        }
                    ]
                },
                "subject": {
                    "reference": "Location/location-29"
                },
                "issued": "2024-01-24T09:21:48.970305+00:00",
                "valueQuantity": {
                    "value": 46183,
                    "unit": "deaths",
                    "system": "http://unitsofmeasure.org",
                    "code": "{deaths}"
                }
            },
            "request": {
                "method": "POST",
                "url": "Observation"
            }
        },
        {
            "fullUrl": "urn:uuid:3566beae-cd26-4b3c-bcce-59b619d57498",
            "resource": {
                "resourceType": "Location",
                "id": "location-30",
                "name": "Halle"
            },
            "request": {
                "method": "POST",
                "url": "Location"
            }
        },
        {
            "fullUrl": "urn:uuid:15a5d0fe-dde2-4c67-bc99-b88614b6dc86",
            "resource": {
                "resourceType": "Observation",
                "id": "covid-cases-30",
                "status": "final",
                "category": [
                    {
                        "coding": [
                            {
                                "system": "http://terminology.hl7.org/CodeSystem/observation-category",
                                "code": "laboratory"
                            }
                        ]
                    }
                ],
                "code": {
                    "coding": [
                        {
                            "system": "http://loinc.org",
                            "code": "94500-6",
                            "display": "COVID-19 cases"
                        }
                    ]
                },
                "subject": {
                    "reference": "Location/location-30"
                },
                "issued": "2024-01-24T09:21:48.971390+00:00",
                "valueQuantity": {
                    "value": 33578,
                    "unit": "cases",
                    "system": "http://unitsofmeasure.org",
                    "code": "{cases}"
                }
            },
            "request": {
                "method": "POST",
                "url": "Observation"
            }
        },
        {
            "fullUrl": "urn:uuid:d8d8acc8-e26d-4816-848a-6ab0bc11c191",
            "resource": {
                "resourceType": "Observation",
                "id": "covid-deaths-30",
                "status": "final",
                "category": [
                    {
                        "coding": [
                            {
                                "system": "http://terminology.hl7.org/CodeSystem/observation-category",
                                "code": "laboratory"
                            }
                        ]
                    }
                ],
                "code": {
                    "coding": [
                        {
                            "system": "http://loinc.org",
                            "code": "94762-2",
                            "display": "COVID-19 deaths"
                        }
                    ]
                },
                "subject": {
                    "reference": "Location/location-30"
                },
                "issued": "2024-01-24T09:21:48.971390+00:00",
                "valueQuantity": {
                    "value": 32254,
                    "unit": "deaths",
                    "system": "http://unitsofmeasure.org",
                    "code": "{deaths}"
                }
            },
            "request": {
                "method": "POST",
                "url": "Observation"
            }
        },
        {
            "fullUrl": "urn:uuid:5049f23c-2650-42e1-8340-5b39361d5950",
            "resource": {
                "resourceType": "Location",
                "id": "location-31",
                "name": "Magdeburg"
            },
            "request": {
                "method": "POST",
                "url": "Location"
            }
        },
        {
            "fullUrl": "urn:uuid:2af68800-0900-4309-a51e-b35bb409e79d",
            "resource": {
                "resourceType": "Observation",
                "id": "covid-cases-31",
                "status": "final",
                "category": [
                    {
                        "coding": [
                            {
                                "system": "http://terminology.hl7.org/CodeSystem/observation-category",
                                "code": "laboratory"
                            }
                        ]
                    }
                ],
                "code": {
                    "coding": [
                        {
                            "system": "http://loinc.org",
                            "code": "94500-6",
                            "display": "COVID-19 cases"
                        }
                    ]
                },
                "subject": {
                    "reference": "Location/location-31"
                },
                "issued": "2024-01-24T09:21:48.972630+00:00",
                "valueQuantity": {
                    "value": 32470,
                    "unit": "cases",
                    "system": "http://unitsofmeasure.org",
                    "code": "{cases}"
                }
            },
            "request": {
                "method": "POST",
                "url": "Observation"
            }
        },
        {
            "fullUrl": "urn:uuid:b9f143a3-fb4b-4afc-8703-d4d531910da9",
            "resource": {
                "resourceType": "Observation",
                "id": "covid-deaths-31",
                "status": "final",
                "category": [
                    {
                        "coding": [
                            {
                                "system": "http://terminology.hl7.org/CodeSystem/observation-category",
                                "code": "laboratory"
                            }
                        ]
                    }
                ],
                "code": {
                    "coding": [
                        {
                            "system": "http://loinc.org",
                            "code": "94762-2",
                            "display": "COVID-19 deaths"
                        }
                    ]
                },
                "subject": {
                    "reference": "Location/location-31"
                },
                "issued": "2024-01-24T09:21:48.972630+00:00",
                "valueQuantity": {
                    "value": 39408,
                    "unit": "deaths",
                    "system": "http://unitsofmeasure.org",
                    "code": "{deaths}"
                }
            },
            "request": {
                "method": "POST",
                "url": "Observation"
            }
        },
        {
            "fullUrl": "urn:uuid:320f1843-cd9c-4427-a6f1-76ac87369164",
            "resource": {
                "resourceType": "Location",
                "id": "location-32",
                "name": "Freiburg im Breisgau"
            },
            "request": {
                "method": "POST",
                "url": "Location"
            }
        },
        {
            "fullUrl": "urn:uuid:5aaf5b1d-e3f5-4c59-b11b-f6c923768983",
            "resource": {
                "resourceType": "Observation",
                "id": "covid-cases-32",
                "status": "final",
                "category": [
                    {
                        "coding": [
                            {
                                "system": "http://terminology.hl7.org/CodeSystem/observation-category",
                                "code": "laboratory"
                            }
                        ]
                    }
                ],
                "code": {
                    "coding": [
                        {
                            "system": "http://loinc.org",
                            "code": "94500-6",
                            "display": "COVID-19 cases"
                        }
                    ]
                },
                "subject": {
                    "reference": "Location/location-32"
                },
                "issued": "2024-01-24T09:21:48.974138+00:00",
                "valueQuantity": {
                    "value": 29540,
                    "unit": "cases",
                    "system": "http://unitsofmeasure.org",
                    "code": "{cases}"
                }
            },
            "request": {
                "method": "POST",
                "url": "Observation"
            }
        },
        {
            "fullUrl": "urn:uuid:0734285c-92e1-4c11-a35d-072425a51a5b",
            "resource": {
                "resourceType": "Observation",
                "id": "covid-deaths-32",
                "status": "final",
                "category": [
                    {
                        "coding": [
                            {
                                "system": "http://terminology.hl7.org/CodeSystem/observation-category",
                                "code": "laboratory"
                            }
                        ]
                    }
                ],
                "code": {
                    "coding": [
                        {
                            "system": "http://loinc.org",
                            "code": "94762-2",
                            "display": "COVID-19 deaths"
                        }
                    ]
                },
                "subject": {
                    "reference": "Location/location-32"
                },
                "issued": "2024-01-24T09:21:48.974138+00:00",
                "valueQuantity": {
                    "value": 13829,
                    "unit": "deaths",
                    "system": "http://unitsofmeasure.org",
                    "code": "{deaths}"
                }
            },
            "request": {
                "method": "POST",
                "url": "Observation"
            }
        },
        {
            "fullUrl": "urn:uuid:24be481b-b91c-48f5-807a-a3b8343cefd2",
            "resource": {
                "resourceType": "Location",
                "id": "location-33",
                "name": "Krefeld"
            },
            "request": {
                "method": "POST",
                "url": "Location"
            }
        },
        {
            "fullUrl": "urn:uuid:5a1101fb-205b-4934-9102-0f73bd1e9df8",
            "resource": {
                "resourceType": "Observation",
                "id": "covid-cases-33",
                "status": "final",
                "category": [
                    {
                        "coding": [
                            {
                                "system": "http://terminology.hl7.org/CodeSystem/observation-category",
                                "code": "laboratory"
                            }
                        ]
                    }
                ],
                "code": {
                    "coding": [
                        {
                            "system": "http://loinc.org",
                            "code": "94500-6",
                            "display": "COVID-19 cases"
                        }
                    ]
                },
                "subject": {
                    "reference": "Location/location-33"
                },
                "issued": "2024-01-24T09:21:48.975219+00:00",
                "valueQuantity": {
                    "value": 26810,
                    "unit": "cases",
                    "system": "http://unitsofmeasure.org",
                    "code": "{cases}"
                }
            },
            "request": {
                "method": "POST",
                "url": "Observation"
            }
        },
        {
            "fullUrl": "urn:uuid:c2b994fe-862d-4439-b277-d8019f374a85",
            "resource": {
                "resourceType": "Observation",
                "id": "covid-deaths-33",
                "status": "final",
                "category": [
                    {
                        "coding": [
                            {
                                "system": "http://terminology.hl7.org/CodeSystem/observation-category",
                                "code": "laboratory"
                            }
                        ]
                    }
                ],
                "code": {
                    "coding": [
                        {
                            "system": "http://loinc.org",
                            "code": "94762-2",
                            "display": "COVID-19 deaths"
                        }
                    ]
                },
                "subject": {
                    "reference": "Location/location-33"
                },
                "issued": "2024-01-24T09:21:48.975219+00:00",
                "valueQuantity": {
                    "value": 30988,
                    "unit": "deaths",
                    "system": "http://unitsofmeasure.org",
                    "code": "{deaths}"
                }
            },
            "request": {
                "method": "POST",
                "url": "Observation"
            }
        },
        {
            "fullUrl": "urn:uuid:43840110-9531-4e8d-8b3c-0ed4364a2e53",
            "resource": {
                "resourceType": "Location",
                "id": "location-34",
                "name": "Mainz"
            },
            "request": {
                "method": "POST",
                "url": "Location"
            }
        },
        {
            "fullUrl": "urn:uuid:bdb9a655-beed-45e0-b5f3-d9590c76296c",
            "resource": {
                "resourceType": "Observation",
                "id": "covid-cases-34",
                "status": "final",
                "category": [
                    {
                        "coding": [
                            {
                                "system": "http://terminology.hl7.org/CodeSystem/observation-category",
                                "code": "laboratory"
                            }
                        ]
                    }
                ],
                "code": {
                    "coding": [
                        {
                            "system": "http://loinc.org",
                            "code": "94500-6",
                            "display": "COVID-19 cases"
                        }
                    ]
                },
                "subject": {
                    "reference": "Location/location-34"
                },
                "issued": "2024-01-24T09:21:48.976313+00:00",
                "valueQuantity": {
                    "value": 15000,
                    "unit": "cases",
                    "system": "http://unitsofmeasure.org",
                    "code": "{cases}"
                }
            },
            "request": {
                "method": "POST",
                "url": "Observation"
            }
        },
        {
            "fullUrl": "urn:uuid:f0c8c45c-ddd1-45ca-8138-a0a655bd324c",
            "resource": {
                "resourceType": "Observation",
                "id": "covid-deaths-34",
                "status": "final",
                "category": [
                    {
                        "coding": [
                            {
                                "system": "http://terminology.hl7.org/CodeSystem/observation-category",
                                "code": "laboratory"
                            }
                        ]
                    }
                ],
                "code": {
                    "coding": [
                        {
                            "system": "http://loinc.org",
                            "code": "94762-2",
                            "display": "COVID-19 deaths"
                        }
                    ]
                },
                "subject": {
                    "reference": "Location/location-34"
                },
                "issued": "2024-01-24T09:21:48.976313+00:00",
                "valueQuantity": {
                    "value": 13520,
                    "unit": "deaths",
                    "system": "http://unitsofmeasure.org",
                    "code": "{deaths}"
                }
            },
            "request": {
                "method": "POST",
                "url": "Observation"
            }
        },
        {
            "fullUrl": "urn:uuid:1544cb00-0afe-4677-8214-c714c78baeef",
            "resource": {
                "resourceType": "Location",
                "id": "location-35",
                "name": "Lubeck"
            },
            "request": {
                "method": "POST",
                "url": "Location"
            }
        },
        {
            "fullUrl": "urn:uuid:3e818b25-7571-43be-9015-86a5db9dc35a",
            "resource": {
                "resourceType": "Observation",
                "id": "covid-cases-35",
                "status": "final",
                "category": [
                    {
                        "coding": [
                            {
                                "system": "http://terminology.hl7.org/CodeSystem/observation-category",
                                "code": "laboratory"
                            }
                        ]
                    }
                ],
                "code": {
                    "coding": [
                        {
                            "system": "http://loinc.org",
                            "code": "94500-6",
                            "display": "COVID-19 cases"
                        }
                    ]
                },
                "subject": {
                    "reference": "Location/location-35"
                },
                "issued": "2024-01-24T09:21:48.977423+00:00",
                "valueQuantity": {
                    "value": 22890,
                    "unit": "cases",
                    "system": "http://unitsofmeasure.org",
                    "code": "{cases}"
                }
            },
            "request": {
                "method": "POST",
                "url": "Observation"
            }
        },
        {
            "fullUrl": "urn:uuid:8076ef05-c108-4183-bb0e-32ddd9d688c4",
            "resource": {
                "resourceType": "Observation",
                "id": "covid-deaths-35",
                "status": "final",
                "category": [
                    {
                        "coding": [
                            {
                                "system": "http://terminology.hl7.org/CodeSystem/observation-category",
                                "code": "laboratory"
                            }
                        ]
                    }
                ],
                "code": {
                    "coding": [
                        {
                            "system": "http://loinc.org",
                            "code": "94762-2",
                            "display": "COVID-19 deaths"
                        }
                    ]
                },
                "subject": {
                    "reference": "Location/location-35"
                },
                "issued": "2024-01-24T09:21:48.977423+00:00",
                "valueQuantity": {
                    "value": 11359,
                    "unit": "deaths",
                    "system": "http://unitsofmeasure.org",
                    "code": "{deaths}"
                }
            },
            "request": {
                "method": "POST",
                "url": "Observation"
            }
        },
        {
            "fullUrl": "urn:uuid:5c9f1e83-c5c3-4583-9d80-8a5504fd3347",
            "resource": {
                "resourceType": "Location",
                "id": "location-36",
                "name": "Erfurt"
            },
            "request": {
                "method": "POST",
                "url": "Location"
            }
        },
        {
            "fullUrl": "urn:uuid:36f0885f-e8da-48ae-8444-3f4423015a17",
            "resource": {
                "resourceType": "Observation",
                "id": "covid-cases-36",
                "status": "final",
                "category": [
                    {
                        "coding": [
                            {
                                "system": "http://terminology.hl7.org/CodeSystem/observation-category",
                                "code": "laboratory"
                            }
                        ]
                    }
                ],
                "code": {
                    "coding": [
                        {
                            "system": "http://loinc.org",
                            "code": "94500-6",
                            "display": "COVID-19 cases"
                        }
                    ]
                },
                "subject": {
                    "reference": "Location/location-36"
                },
                "issued": "2024-01-24T09:21:48.978507+00:00",
                "valueQuantity": {
                    "value": 24646,
                    "unit": "cases",
                    "system": "http://unitsofmeasure.org",
                    "code": "{cases}"
                }
            },
            "request": {
                "method": "POST",
                "url": "Observation"
            }
        },
        {
            "fullUrl": "urn:uuid:4618fdbb-111c-4b46-b003-ead3562665f3",
            "resource": {
                "resourceType": "Observation",
                "id": "covid-deaths-36",
                "status": "final",
                "category": [
                    {
                        "coding": [
                            {
                                "system": "http://terminology.hl7.org/CodeSystem/observation-category",
                                "code": "laboratory"
                            }
                        ]
                    }
                ],
                "code": {
                    "coding": [
                        {
                            "system": "http://loinc.org",
                            "code": "94762-2",
                            "display": "COVID-19 deaths"
                        }
                    ]
                },
                "subject": {
                    "reference": "Location/location-36"
                },
                "issued": "2024-01-24T09:21:48.978507+00:00",
                "valueQuantity": {
                    "value": 29231,
                    "unit": "deaths",
                    "system": "http://unitsofmeasure.org",
                    "code": "{deaths}"
                }
            },
            "request": {
                "method": "POST",
                "url": "Observation"
            }
        },
        {
            "fullUrl": "urn:uuid:1229599d-bb1c-4cd5-a112-e6791bc35272",
            "resource": {
                "resourceType": "Location",
                "id": "location-37",
                "name": "Oberhausen"
            },
            "request": {
                "method": "POST",
                "url": "Location"
            }
        },
        {
            "fullUrl": "urn:uuid:78f4dcc3-5626-456a-b5ff-d5c7d0b9b884",
            "resource": {
                "resourceType": "Observation",
                "id": "covid-cases-37",
                "status": "final",
                "category": [
                    {
                        "coding": [
                            {
                                "system": "http://terminology.hl7.org/CodeSystem/observation-category",
                                "code": "laboratory"
                            }
                        ]
                    }
                ],
                "code": {
                    "coding": [
                        {
                            "system": "http://loinc.org",
                            "code": "94500-6",
                            "display": "COVID-19 cases"
                        }
                    ]
                },
                "subject": {
                    "reference": "Location/location-37"
                },
                "issued": "2024-01-24T09:21:48.979859+00:00",
                "valueQuantity": {
                    "value": 40568,
                    "unit": "cases",
                    "system": "http://unitsofmeasure.org",
                    "code": "{cases}"
                }
            },
            "request": {
                "method": "POST",
                "url": "Observation"
            }
        },
        {
            "fullUrl": "urn:uuid:8f632ea8-79fc-48c5-9454-250924750a70",
            "resource": {
                "resourceType": "Observation",
                "id": "covid-deaths-37",
                "status": "final",
                "category": [
                    {
                        "coding": [
                            {
                                "system": "http://terminology.hl7.org/CodeSystem/observation-category",
                                "code": "laboratory"
                            }
                        ]
                    }
                ],
                "code": {
                    "coding": [
                        {
                            "system": "http://loinc.org",
                            "code": "94762-2",
                            "display": "COVID-19 deaths"
                        }
                    ]
                },
                "subject": {
                    "reference": "Location/location-37"
                },
                "issued": "2024-01-24T09:21:48.979859+00:00",
                "valueQuantity": {
                    "value": 25403,
                    "unit": "deaths",
                    "system": "http://unitsofmeasure.org",
                    "code": "{deaths}"
                }
            },
            "request": {
                "method": "POST",
                "url": "Observation"
            }
        },
        {
            "fullUrl": "urn:uuid:89ae35f1-3e6c-4ca5-8fb3-35e46de53fc5",
            "resource": {
                "resourceType": "Location",
                "id": "location-38",
                "name": "Rostock"
            },
            "request": {
                "method": "POST",
                "url": "Location"
            }
        },
        {
            "fullUrl": "urn:uuid:1974a47b-ef55-42d2-bd8e-72989a0f66da",
            "resource": {
                "resourceType": "Observation",
                "id": "covid-cases-38",
                "status": "final",
                "category": [
                    {
                        "coding": [
                            {
                                "system": "http://terminology.hl7.org/CodeSystem/observation-category",
                                "code": "laboratory"
                            }
                        ]
                    }
                ],
                "code": {
                    "coding": [
                        {
                            "system": "http://loinc.org",
                            "code": "94500-6",
                            "display": "COVID-19 cases"
                        }
                    ]
                },
                "subject": {
                    "reference": "Location/location-38"
                },
                "issued": "2024-01-24T09:21:48.981019+00:00",
                "valueQuantity": {
                    "value": 31950,
                    "unit": "cases",
                    "system": "http://unitsofmeasure.org",
                    "code": "{cases}"
                }
            },
            "request": {
                "method": "POST",
                "url": "Observation"
            }
        },
        {
            "fullUrl": "urn:uuid:a2910ca0-a814-4c4d-a782-36598dfdd499",
            "resource": {
                "resourceType": "Observation",
                "id": "covid-deaths-38",
                "status": "final",
                "category": [
                    {
                        "coding": [
                            {
                                "system": "http://terminology.hl7.org/CodeSystem/observation-category",
                                "code": "laboratory"
                            }
                        ]
                    }
                ],
                "code": {
                    "coding": [
                        {
                            "system": "http://loinc.org",
                            "code": "94762-2",
                            "display": "COVID-19 deaths"
                        }
                    ]
                },
                "subject": {
                    "reference": "Location/location-38"
                },
                "issued": "2024-01-24T09:21:48.981019+00:00",
                "valueQuantity": {
                    "value": 13567,
                    "unit": "deaths",
                    "system": "http://unitsofmeasure.org",
                    "code": "{deaths}"
                }
            },
            "request": {
                "method": "POST",
                "url": "Observation"
            }
        }
    ]
}