{
    "resourceType": "Bundle",
    "type": "batch",
    "entry": [
        {
            "fullUrl": "urn:uuid:45010f6a-f77f-4aa6-bda5-38d66efc255a",
            "resource": {
                "resourceType": "Location",
                "id": "location-0",
                "name": "Berlin"
            }
        },
        {
            "fullUrl": "urn:uuid:10dc9730-618e-4bf2-82df-0bdd7fee73bf",
            "resource": {
                "resourceType": "Observation",
                "id": "covid-cases-0",
                "status": "final",
                "category": [
                    {
                        "coding": [
                            {
                                "system": "http://terminology.hl7.org/CodeSystem/observation-category",
                                "code": "laboratory"
                            }
                        ]
                    }
                ],
                "code": {
                    "coding": [
                        {
                            "system": "http://loinc.org",
                            "code": "94500-6",
                            "display": "COVID-19 cases"
                        }
                    ]
                },
                "subject": {
                    "reference": "Location/location-0"
                },
                "issued": "2024-01-22T18:27:10.627086+00:00",
                "valueQuantity": {
                    "value": 1150345,
                    "unit": "cases",
                    "system": "http://unitsofmeasure.org",
                    "code": "{cases}"
                }
            }
        },
        {
            "fullUrl": "urn:uuid:77013dce-8cf6-4554-bcb0-93ddf35cca8c",
            "resource": {
                "resourceType": "Observation",
                "id": "covid-deaths-0",
                "status": "final",
                "category": [
                    {
                        "coding": [
                            {
                                "system": "http://terminology.hl7.org/CodeSystem/observation-category",
                                "code": "laboratory"
                            }
                        ]
                    }
                ],
                "code": {
                    "coding": [
                        {
                            "system": "http://loinc.org",
                            "code": "94762-2",
                            "display": "COVID-19 deaths"
                        }
                    ]
                },
                "subject": {
                    "reference": "Location/location-0"
                },
                "issued": "2024-01-22T18:27:10.627086+00:00",
                "valueQuantity": {
                    "value": 350000,
                    "unit": "deaths",
                    "system": "http://unitsofmeasure.org",
                    "code": "{deaths}"
                }
            }
        },
        {
            "fullUrl": "urn:uuid:5b38925f-c8d2-4fa3-b373-207dc444168d",
            "resource": {
                "resourceType": "Location",
                "id": "location-1",
                "name": "Stuttgart"
            }
        },
        {
            "fullUrl": "urn:uuid:7bb36e1f-b11b-4702-ab64-1c35931e8f97",
            "resource": {
                "resourceType": "Observation",
                "id": "covid-cases-1",
                "status": "final",
                "category": [
                    {
                        "coding": [
                            {
                                "system": "http://terminology.hl7.org/CodeSystem/observation-category",
                                "code": "laboratory"
                            }
                        ]
                    }
                ],
                "code": {
                    "coding": [
                        {
                            "system": "http://loinc.org",
                            "code": "94500-6",
                            "display": "COVID-19 cases"
                        }
                    ]
                },
                "subject": {
                    "reference": "Location/location-1"
                },
                "issued": "2024-01-22T18:27:10.644763+00:00",
                "valueQuantity": {
                    "value": 1050746,
                    "unit": "cases",
                    "system": "http://unitsofmeasure.org",
                    "code": "{cases}"
                }
            }
        },
        {
            "fullUrl": "urn:uuid:b306cf2c-5583-4de3-a622-3d42b236e01a",
            "resource": {
                "resourceType": "Observation",
                "id": "covid-deaths-1",
                "status": "final",
                "category": [
                    {
                        "coding": [
                            {
                                "system": "http://terminology.hl7.org/CodeSystem/observation-category",
                                "code": "laboratory"
                            }
                        ]
                    }
                ],
                "code": {
                    "coding": [
                        {
                            "system": "http://loinc.org",
                            "code": "94762-2",
                            "display": "COVID-19 deaths"
                        }
                    ]
                },
                "subject": {
                    "reference": "Location/location-1"
                },
                "issued": "2024-01-22T18:27:10.644763+00:00",
                "valueQuantity": {
                    "value": 330420,
                    "unit": "deaths",
                    "system": "http://unitsofmeasure.org",
                    "code": "{deaths}"
                }
            }
        },
        {
            "fullUrl": "urn:uuid:d65eddbb-face-4487-bcbf-382981e7d74b",
            "resource": {
                "resourceType": "Location",
                "id": "location-2",
                "name": "Munich"
            }
        },
        {
            "fullUrl": "urn:uuid:87f7e878-cca3-4981-8566-df461e0da44e",
            "resource": {
                "resourceType": "Observation",
                "id": "covid-cases-2",
                "status": "final",
                "category": [
                    {
                        "coding": [
                            {
                                "system": "http://terminology.hl7.org/CodeSystem/observation-category",
                                "code": "laboratory"
                            }
                        ]
                    }
                ],
                "code": {
                    "coding": [
                        {
                            "system": "http://loinc.org",
                            "code": "94500-6",
                            "display": "COVID-19 cases"
                        }
                    ]
                },
                "subject": {
                    "reference": "Location/location-2"
                },
                "issued": "2024-01-22T18:27:10.646369+00:00",
                "valueQuantity": {
                    "value": 900530,
                    "unit": "cases",
                    "system": "http://unitsofmeasure.org",
                    "code": "{cases}"
                }
            }
        },
        {
            "fullUrl": "urn:uuid:3505d2e6-cdcb-40e5-8a66-3db1cfbb9151",
            "resource": {
                "resourceType": "Observation",
                "id": "covid-deaths-2",
                "status": "final",
                "category": [
                    {
                        "coding": [
                            {
                                "system": "http://terminology.hl7.org/CodeSystem/observation-category",
                                "code": "laboratory"
                            }
                        ]
                    }
                ],
                "code": {
                    "coding": [
                        {
                            "system": "http://loinc.org",
                            "code": "94762-2",
                            "display": "COVID-19 deaths"
                        }
                    ]
                },
                "subject": {
                    "reference": "Location/location-2"
                },
                "issued": "2024-01-22T18:27:10.646369+00:00",
                "valueQuantity": {
                    "value": 305438,
                    "unit": "deaths",
                    "system": "http://unitsofmeasure.org",
                    "code": "{deaths}"
                }
            }
        },
        {
            "fullUrl": "urn:uuid:bfbd23ee-1ba3-4888-a9d9-f8488f1492f1",
            "resource": {
                "resourceType": "Location",
                "id": "location-3",
                "name": "Hamburg"
            }
        },
        {
            "fullUrl": "urn:uuid:d7568589-95f9-43ba-ae38-8a0cdeeff00b",
            "resource": {
                "resourceType": "Observation",
                "id": "covid-cases-3",
                "status": "final",
                "category": [
                    {
                        "coding": [
                            {
                                "system": "http://terminology.hl7.org/CodeSystem/observation-category",
                                "code": "laboratory"
                            }
                        ]
                    }
                ],
                "code": {
                    "coding": [
                        {
                            "system": "http://loinc.org",
                            "code": "94500-6",
                            "display": "COVID-19 cases"
                        }
                    ]
                },
                "subject": {
                    "reference": "Location/location-3"
                },
                "issued": "2024-01-22T18:27:10.647522+00:00",
                "valueQuantity": {
                    "value": 1093489,
                    "unit": "cases",
                    "system": "http://unitsofmeasure.org",
                    "code": "{cases}"
                }
            }
        },
        {
            "fullUrl": "urn:uuid:e0fec2d7-59e7-4db5-b11d-d78d137f1ac9",
            "resource": {
                "resourceType": "Observation",
                "id": "covid-deaths-3",
                "status": "final",
                "category": [
                    {
                        "coding": [
                            {
                                "system": "http://terminology.hl7.org/CodeSystem/observation-category",
                                "code": "laboratory"
                            }
                        ]
                    }
                ],
                "code": {
                    "coding": [
                        {
                            "system": "http://loinc.org",
                            "code": "94762-2",
                            "display": "COVID-19 deaths"
                        }
                    ]
                },
                "subject": {
                    "reference": "Location/location-3"
                },
                "issued": "2024-01-22T18:27:10.647522+00:00",
                "valueQuantity": {
                    "value": 300420,
                    "unit": "deaths",
                    "system": "http://unitsofmeasure.org",
                    "code": "{deaths}"
                }
            }
        },
        {
            "fullUrl": "urn:uuid:f0bce950-332d-46fc-843b-0c3e30e1059d",
            "resource": {
                "resourceType": "Location",
                "id": "location-4",
                "name": "Cologne"
            }
        },
        {
            "fullUrl": "urn:uuid:157fcdce-126d-4cbc-babd-d876dcd1ddea",
            "resource": {
                "resourceType": "Observation",
                "id": "covid-cases-4",
                "status": "final",
                "category": [
                    {
                        "coding": [
                            {
                                "system": "http://terminology.hl7.org/CodeSystem/observation-category",
                                "code": "laboratory"
                            }
                        ]
                    }
                ],
                "code": {
                    "coding": [
                        {
                            "system": "http://loinc.org",
                            "code": "94500-6",
                            "display": "COVID-19 cases"
                        }
                    ]
                },
                "subject": {
                    "reference": "Location/location-4"
                },
                "issued": "2024-01-22T18:27:10.648595+00:00",
                "valueQuantity": {
                    "value": 400300,
                    "unit": "cases",
                    "system": "http://unitsofmeasure.org",
                    "code": "{cases}"
                }
            }
        },
        {
            "fullUrl": "urn:uuid:8594d0a4-ee4e-4b5c-bbae-da7082a2f0f7",
            "resource": {
                "resourceType": "Observation",
                "id": "covid-deaths-4",
                "status": "final",
                "category": [
                    {
                        "coding": [
                            {
                                "system": "http://terminology.hl7.org/CodeSystem/observation-category",
                                "code": "laboratory"
                            }
                        ]
                    }
                ],
                "code": {
                    "coding": [
                        {
                            "system": "http://loinc.org",
                            "code": "94762-2",
                            "display": "COVID-19 deaths"
                        }
                    ]
                },
                "subject": {
                    "reference": "Location/location-4"
                },
                "issued": "2024-01-22T18:27:10.648595+00:00",
                "valueQuantity": {
                    "value": 120500,
                    "unit": "deaths",
                    "system": "http://unitsofmeasure.org",
                    "code": "{deaths}"
                }
            }
        },
        {
            "fullUrl": "urn:uuid:d7abe926-56b9-4268-b371-1d30a299abd2",
            "resource": {
                "resourceType": "Location",
                "id": "location-5",
                "name": "Frankfurt"
            }
        },
        {
            "fullUrl": "urn:uuid:f882658f-7d34-4968-9df7-b39096949bf8",
            "resource": {
                "resourceType": "Observation",
                "id": "covid-cases-5",
                "status": "final",
                "category": [
                    {
                        "coding": [
                            {
                                "system": "http://terminology.hl7.org/CodeSystem/observation-category",
                                "code": "laboratory"
                            }
                        ]
                    }
                ],
                "code": {
                    "coding": [
                        {
                            "system": "http://loinc.org",
                            "code": "94500-6",
                            "display": "COVID-19 cases"
                        }
                    ]
                },
                "subject": {
                    "reference": "Location/location-5"
                },
                "issued": "2024-01-22T18:27:10.649662+00:00",
                "valueQuantity": {
                    "value": 300670,
                    "unit": "cases",
                    "system": "http://unitsofmeasure.org",
                    "code": "{cases}"
                }
            }
        },
        {
            "fullUrl": "urn:uuid:ee53e0b5-e6c3-44bc-bfe2-538fde034bb2",
            "resource": {
                "resourceType": "Observation",
                "id": "covid-deaths-5",
                "status": "final",
                "category": [
                    {
                        "coding": [
                            {
                                "system": "http://terminology.hl7.org/CodeSystem/observation-category",
                                "code": "laboratory"
                            }
                        ]
                    }
                ],
                "code": {
                    "coding": [
                        {
                            "system": "http://loinc.org",
                            "code": "94762-2",
                            "display": "COVID-19 deaths"
                        }
                    ]
                },
                "subject": {
                    "reference": "Location/location-5"
                },
                "issued": "2024-01-22T18:27:10.649662+00:00",
                "valueQuantity": {
                    "value": 103410,
                    "unit": "deaths",
                    "system": "http://unitsofmeasure.org",
                    "code": "{deaths}"
                }
            }
        },
        {
            "fullUrl": "urn:uuid:4ca716f5-3d68-45e2-b71d-b546fbf52c14",
            "resource": {
                "resourceType": "Location",
                "id": "location-6",
                "name": "Dusseldorf"
            }
        },
        {
            "fullUrl": "urn:uuid:7c28b88c-ae3a-420f-9302-d1572b8bbce9",
            "resource": {
                "resourceType": "Observation",
                "id": "covid-cases-6",
                "status": "final",
                "category": [
                    {
                        "coding": [
                            {
                                "system": "http://terminology.hl7.org/CodeSystem/observation-category",
                                "code": "laboratory"
                            }
                        ]
                    }
                ],
                "code": {
                    "coding": [
                        {
                            "system": "http://loinc.org",
                            "code": "94500-6",
                            "display": "COVID-19 cases"
                        }
                    ]
                },
                "subject": {
                    "reference": "Location/location-6"
                },
                "issued": "2024-01-22T18:27:10.650749+00:00",
                "valueQuantity": {
                    "value": 250865,
                    "unit": "cases",
                    "system": "http://unitsofmeasure.org",
                    "code": "{cases}"
                }
            }
        },
        {
            "fullUrl": "urn:uuid:99983a18-c1a0-4807-8e28-387b051d049b",
            "resource": {
                "resourceType": "Observation",
                "id": "covid-deaths-6",
                "status": "final",
                "category": [
                    {
                        "coding": [
                            {
                                "system": "http://terminology.hl7.org/CodeSystem/observation-category",
                                "code": "laboratory"
                            }
                        ]
                    }
                ],
                "code": {
                    "coding": [
                        {
                            "system": "http://loinc.org",
                            "code": "94762-2",
                            "display": "COVID-19 deaths"
                        }
                    ]
                },
                "subject": {
                    "reference": "Location/location-6"
                },
                "issued": "2024-01-22T18:27:10.650749+00:00",
                "valueQuantity": {
                    "value": 80400,
                    "unit": "deaths",
                    "system": "http://unitsofmeasure.org",
                    "code": "{deaths}"
                }
            }
        },
        {
            "fullUrl": "urn:uuid:f53f2455-8654-4a3b-b720-300802b7b571",
            "resource": {
                "resourceType": "Location",
                "id": "location-7",
                "name": "Leipzig"
            }
        },
        {
            "fullUrl": "urn:uuid:a739bb7b-e801-4899-8b8d-fcabca29c570",
            "resource": {
                "resourceType": "Observation",
                "id": "covid-cases-7",
                "status": "final",
                "category": [
                    {
                        "coding": [
                            {
                                "system": "http://terminology.hl7.org/CodeSystem/observation-category",
                                "code": "laboratory"
                            }
                        ]
                    }
                ],
                "code": {
                    "coding": [
                        {
                            "system": "http://loinc.org",
                            "code": "94500-6",
                            "display": "COVID-19 cases"
                        }
                    ]
                },
                "subject": {
                    "reference": "Location/location-7"
                },
                "issued": "2024-01-22T18:27:10.651822+00:00",
                "valueQuantity": {
                    "value": 240897,
                    "unit": "cases",
                    "system": "http://unitsofmeasure.org",
                    "code": "{cases}"
                }
            }
        },
        {
            "fullUrl": "urn:uuid:67b3f85f-5071-4acf-a381-866161c3226c",
            "resource": {
                "resourceType": "Observation",
                "id": "covid-deaths-7",
                "status": "final",
                "category": [
                    {
                        "coding": [
                            {
                                "system": "http://terminology.hl7.org/CodeSystem/observation-category",
                                "code": "laboratory"
                            }
                        ]
                    }
                ],
                "code": {
                    "coding": [
                        {
                            "system": "http://loinc.org",
                            "code": "94762-2",
                            "display": "COVID-19 deaths"
                        }
                    ]
                },
                "subject": {
                    "reference": "Location/location-7"
                },
                "issued": "2024-01-22T18:27:10.651822+00:00",
                "valueQuantity": {
                    "value": 75680,
                    "unit": "deaths",
                    "system": "http://unitsofmeasure.org",
                    "code": "{deaths}"
                }
            }
        },
        {
            "fullUrl": "urn:uuid:f86c9b09-12ec-4cd9-9ef0-7e20de7a2e1f",
            "resource": {
                "resourceType": "Location",
                "id": "location-8",
                "name": "Dortmund"
            }
        },
        {
            "fullUrl": "urn:uuid:7a7797b1-2487-478b-b8fa-2fe52c2328b4",
            "resource": {
                "resourceType": "Observation",
                "id": "covid-cases-8",
                "status": "final",
                "category": [
                    {
                        "coding": [
                            {
                                "system": "http://terminology.hl7.org/CodeSystem/observation-category",
                                "code": "laboratory"
                            }
                        ]
                    }
                ],
                "code": {
                    "coding": [
                        {
                            "system": "http://loinc.org",
                            "code": "94500-6",
                            "display": "COVID-19 cases"
                        }
                    ]
                },
                "subject": {
                    "reference": "Location/location-8"
                },
                "issued": "2024-01-22T18:27:10.652862+00:00",
                "valueQuantity": {
                    "value": 236780,
                    "unit": "cases",
                    "system": "http://unitsofmeasure.org",
                    "code": "{cases}"
                }
            }
        },
        {
            "fullUrl": "urn:uuid:26e5e776-5e13-4ba6-81bc-11aa66f4ec9c",
            "resource": {
                "resourceType": "Observation",
                "id": "covid-deaths-8",
                "status": "final",
                "category": [
                    {
                        "coding": [
                            {
                                "system": "http://terminology.hl7.org/CodeSystem/observation-category",
                                "code": "laboratory"
                            }
                        ]
                    }
                ],
                "code": {
                    "coding": [
                        {
                            "system": "http://loinc.org",
                            "code": "94762-2",
                            "display": "COVID-19 deaths"
                        }
                    ]
                },
                "subject": {
                    "reference": "Location/location-8"
                },
                "issued": "2024-01-22T18:27:10.652862+00:00",
                "valueQuantity": {
                    "value": 72687,
                    "unit": "deaths",
                    "system": "http://unitsofmeasure.org",
                    "code": "{deaths}"
                }
            }
        },
        {
            "fullUrl": "urn:uuid:c2e0e9a8-fa9e-4f3a-8779-cdbfc4a8bf66",
            "resource": {
                "resourceType": "Location",
                "id": "location-9",
                "name": "Essen"
            }
        },
        {
            "fullUrl": "urn:uuid:82e0aaf2-5d8d-42f9-a01b-eb4805d78a00",
            "resource": {
                "resourceType": "Observation",
                "id": "covid-cases-9",
                "status": "final",
                "category": [
                    {
                        "coding": [
                            {
                                "system": "http://terminology.hl7.org/CodeSystem/observation-category",
                                "code": "laboratory"
                            }
                        ]
                    }
                ],
                "code": {
                    "coding": [
                        {
                            "system": "http://loinc.org",
                            "code": "94500-6",
                            "display": "COVID-19 cases"
                        }
                    ]
                },
                "subject": {
                    "reference": "Location/location-9"
                },
                "issued": "2024-01-22T18:27:10.653916+00:00",
                "valueQuantity": {
                    "value": 218950,
                    "unit": "cases",
                    "system": "http://unitsofmeasure.org",
                    "code": "{cases}"
                }
            }
        },
        {
            "fullUrl": "urn:uuid:fccde172-9aca-4c0e-a311-223103a7648c",
            "resource": {
                "resourceType": "Observation",
                "id": "covid-deaths-9",
                "status": "final",
                "category": [
                    {
                        "coding": [
                            {
                                "system": "http://terminology.hl7.org/CodeSystem/observation-category",
                                "code": "laboratory"
                            }
                        ]
                    }
                ],
                "code": {
                    "coding": [
                        {
                            "system": "http://loinc.org",
                            "code": "94762-2",
                            "display": "COVID-19 deaths"
                        }
                    ]
                },
                "subject": {
                    "reference": "Location/location-9"
                },
                "issued": "2024-01-22T18:27:10.653916+00:00",
                "valueQuantity": {
                    "value": 64000,
                    "unit": "deaths",
                    "system": "http://unitsofmeasure.org",
                    "code": "{deaths}"
                }
            }
        },
        {
            "fullUrl": "urn:uuid:693defbc-d5f1-4dae-9456-2b22a8966253",
            "resource": {
                "resourceType": "Location",
                "id": "location-10",
                "name": "Bremen"
            }
        },
        {
            "fullUrl": "urn:uuid:cc0a20c3-0855-4d01-a6ee-8289190738f9",
            "resource": {
                "resourceType": "Observation",
                "id": "covid-cases-10",
                "status": "final",
                "category": [
                    {
                        "coding": [
                            {
                                "system": "http://terminology.hl7.org/CodeSystem/observation-category",
                                "code": "laboratory"
                            }
                        ]
                    }
                ],
                "code": {
                    "coding": [
                        {
                            "system": "http://loinc.org",
                            "code": "94500-6",
                            "display": "COVID-19 cases"
                        }
                    ]
                },
                "subject": {
                    "reference": "Location/location-10"
                },
                "issued": "2024-01-22T18:27:10.654993+00:00",
                "valueQuantity": {
                    "value": 162970,
                    "unit": "cases",
                    "system": "http://unitsofmeasure.org",
                    "code": "{cases}"
                }
            }
        },
        {
            "fullUrl": "urn:uuid:df6cd6aa-38e3-4c02-9e31-8b8866a5cce1",
            "resource": {
                "resourceType": "Observation",
                "id": "covid-deaths-10",
                "status": "final",
                "category": [
                    {
                        "coding": [
                            {
                                "system": "http://terminology.hl7.org/CodeSystem/observation-category",
                                "code": "laboratory"
                            }
                        ]
                    }
                ],
                "code": {
                    "coding": [
                        {
                            "system": "http://loinc.org",
                            "code": "94762-2",
                            "display": "COVID-19 deaths"
                        }
                    ]
                },
                "subject": {
                    "reference": "Location/location-10"
                },
                "issued": "2024-01-22T18:27:10.654993+00:00",
                "valueQuantity": {
                    "value": 30500,
                    "unit": "deaths",
                    "system": "http://unitsofmeasure.org",
                    "code": "{deaths}"
                }
            }
        },
        {
            "fullUrl": "urn:uuid:b87950da-b645-4b2a-8b2d-36e7d4b59fa1",
            "resource": {
                "resourceType": "Location",
                "id": "location-11",
                "name": "Dresden"
            }
        },
        {
            "fullUrl": "urn:uuid:e026d4ba-5c9e-4990-b058-a776ceb36999",
            "resource": {
                "resourceType": "Observation",
                "id": "covid-cases-11",
                "status": "final",
                "category": [
                    {
                        "coding": [
                            {
                                "system": "http://terminology.hl7.org/CodeSystem/observation-category",
                                "code": "laboratory"
                            }
                        ]
                    }
                ],
                "code": {
                    "coding": [
                        {
                            "system": "http://loinc.org",
                            "code": "94500-6",
                            "display": "COVID-19 cases"
                        }
                    ]
                },
                "subject": {
                    "reference": "Location/location-11"
                },
                "issued": "2024-01-22T18:27:10.656138+00:00",
                "valueQuantity": {
                    "value": 300897,
                    "unit": "cases",
                    "system": "http://unitsofmeasure.org",
                    "code": "{cases}"
                }
            }
        },
        {
            "fullUrl": "urn:uuid:38ed30fc-214d-47fb-bb8f-0962fd4bbbf5",
            "resource": {
                "resourceType": "Observation",
                "id": "covid-deaths-11",
                "status": "final",
                "category": [
                    {
                        "coding": [
                            {
                                "system": "http://terminology.hl7.org/CodeSystem/observation-category",
                                "code": "laboratory"
                            }
                        ]
                    }
                ],
                "code": {
                    "coding": [
                        {
                            "system": "http://loinc.org",
                            "code": "94762-2",
                            "display": "COVID-19 deaths"
                        }
                    ]
                },
                "subject": {
                    "reference": "Location/location-11"
                },
                "issued": "2024-01-22T18:27:10.656138+00:00",
                "valueQuantity": {
                    "value": 55430,
                    "unit": "deaths",
                    "system": "http://unitsofmeasure.org",
                    "code": "{deaths}"
                }
            }
        },
        {
            "fullUrl": "urn:uuid:e8c2b775-118b-4fa5-9461-532eb1b03509",
            "resource": {
                "resourceType": "Location",
                "id": "location-12",
                "name": "Hannover"
            }
        },
        {
            "fullUrl": "urn:uuid:5f0ce16b-fc20-4d8d-b29e-dd59f7e94589",
            "resource": {
                "resourceType": "Observation",
                "id": "covid-cases-12",
                "status": "final",
                "category": [
                    {
                        "coding": [
                            {
                                "system": "http://terminology.hl7.org/CodeSystem/observation-category",
                                "code": "laboratory"
                            }
                        ]
                    }
                ],
                "code": {
                    "coding": [
                        {
                            "system": "http://loinc.org",
                            "code": "94500-6",
                            "display": "COVID-19 cases"
                        }
                    ]
                },
                "subject": {
                    "reference": "Location/location-12"
                },
                "issued": "2024-01-22T18:27:10.657382+00:00",
                "valueQuantity": {
                    "value": 230200,
                    "unit": "cases",
                    "system": "http://unitsofmeasure.org",
                    "code": "{cases}"
                }
            }
        },
        {
            "fullUrl": "urn:uuid:ef1fcb56-6a67-4563-85f6-85d4ab2f0a4a",
            "resource": {
                "resourceType": "Observation",
                "id": "covid-deaths-12",
                "status": "final",
                "category": [
                    {
                        "coding": [
                            {
                                "system": "http://terminology.hl7.org/CodeSystem/observation-category",
                                "code": "laboratory"
                            }
                        ]
                    }
                ],
                "code": {
                    "coding": [
                        {
                            "system": "http://loinc.org",
                            "code": "94762-2",
                            "display": "COVID-19 deaths"
                        }
                    ]
                },
                "subject": {
                    "reference": "Location/location-12"
                },
                "issued": "2024-01-22T18:27:10.657382+00:00",
                "valueQuantity": {
                    "value": 14791,
                    "unit": "deaths",
                    "system": "http://unitsofmeasure.org",
                    "code": "{deaths}"
                }
            }
        },
        {
            "fullUrl": "urn:uuid:3b07bd2a-1be7-4885-8126-e192247aa2e1",
            "resource": {
                "resourceType": "Location",
                "id": "location-13",
                "name": "Nuremberg"
            }
        },
        {
            "fullUrl": "urn:uuid:af1eaefd-abce-4edb-96f2-8791f4ca919e",
            "resource": {
                "resourceType": "Observation",
                "id": "covid-cases-13",
                "status": "final",
                "category": [
                    {
                        "coding": [
                            {
                                "system": "http://terminology.hl7.org/CodeSystem/observation-category",
                                "code": "laboratory"
                            }
                        ]
                    }
                ],
                "code": {
                    "coding": [
                        {
                            "system": "http://loinc.org",
                            "code": "94500-6",
                            "display": "COVID-19 cases"
                        }
                    ]
                },
                "subject": {
                    "reference": "Location/location-13"
                },
                "issued": "2024-01-22T18:27:10.658436+00:00",
                "valueQuantity": {
                    "value": 150000,
                    "unit": "cases",
                    "system": "http://unitsofmeasure.org",
                    "code": "{cases}"
                }
            }
        },
        {
            "fullUrl": "urn:uuid:29c9bfa6-1091-4630-8819-f8f6fc5f50df",
            "resource": {
                "resourceType": "Observation",
                "id": "covid-deaths-13",
                "status": "final",
                "category": [
                    {
                        "coding": [
                            {
                                "system": "http://terminology.hl7.org/CodeSystem/observation-category",
                                "code": "laboratory"
                            }
                        ]
                    }
                ],
                "code": {
                    "coding": [
                        {
                            "system": "http://loinc.org",
                            "code": "94762-2",
                            "display": "COVID-19 deaths"
                        }
                    ]
                },
                "subject": {
                    "reference": "Location/location-13"
                },
                "issued": "2024-01-22T18:27:10.658436+00:00",
                "valueQuantity": {
                    "value": 46457,
                    "unit": "deaths",
                    "system": "http://unitsofmeasure.org",
                    "code": "{deaths}"
                }
            }
        },
        {
            "fullUrl": "urn:uuid:11c05a0a-0593-4d63-81a9-da1ca721df04",
            "resource": {
                "resourceType": "Location",
                "id": "location-14",
                "name": "Duisburg"
            }
        },
        {
            "fullUrl": "urn:uuid:9e1f9908-c575-46f2-9cd6-6cba159701ca",
            "resource": {
                "resourceType": "Observation",
                "id": "covid-cases-14",
                "status": "final",
                "category": [
                    {
                        "coding": [
                            {
                                "system": "http://terminology.hl7.org/CodeSystem/observation-category",
                                "code": "laboratory"
                            }
                        ]
                    }
                ],
                "code": {
                    "coding": [
                        {
                            "system": "http://loinc.org",
                            "code": "94500-6",
                            "display": "COVID-19 cases"
                        }
                    ]
                },
                "subject": {
                    "reference": "Location/location-14"
                },
                "issued": "2024-01-22T18:27:10.659552+00:00",
                "valueQuantity": {
                    "value": 190670,
                    "unit": "cases",
                    "system": "http://unitsofmeasure.org",
                    "code": "{cases}"
                }
            }
        },
        {
            "fullUrl": "urn:uuid:050aa65c-f3c7-432c-9560-18a10f62212d",
            "resource": {
                "resourceType": "Observation",
                "id": "covid-deaths-14",
                "status": "final",
                "category": [
                    {
                        "coding": [
                            {
                                "system": "http://terminology.hl7.org/CodeSystem/observation-category",
                                "code": "laboratory"
                            }
                        ]
                    }
                ],
                "code": {
                    "coding": [
                        {
                            "system": "http://loinc.org",
                            "code": "94762-2",
                            "display": "COVID-19 deaths"
                        }
                    ]
                },
                "subject": {
                    "reference": "Location/location-14"
                },
                "issued": "2024-01-22T18:27:10.659552+00:00",
                "valueQuantity": {
                    "value": 32001,
                    "unit": "deaths",
                    "system": "http://unitsofmeasure.org",
                    "code": "{deaths}"
                }
            }
        },
        {
            "fullUrl": "urn:uuid:f612b67b-9348-4350-ba0a-52ba6c2b04ee",
            "resource": {
                "resourceType": "Location",
                "id": "location-15",
                "name": "Bochum"
            }
        },
        {
            "fullUrl": "urn:uuid:4a245a8c-231c-44b5-aa93-aac6cb5f72a7",
            "resource": {
                "resourceType": "Observation",
                "id": "covid-cases-15",
                "status": "final",
                "category": [
                    {
                        "coding": [
                            {
                                "system": "http://terminology.hl7.org/CodeSystem/observation-category",
                                "code": "laboratory"
                            }
                        ]
                    }
                ],
                "code": {
                    "coding": [
                        {
                            "system": "http://loinc.org",
                            "code": "94500-6",
                            "display": "COVID-19 cases"
                        }
                    ]
                },
                "subject": {
                    "reference": "Location/location-15"
                },
                "issued": "2024-01-22T18:27:10.660605+00:00",
                "valueQuantity": {
                    "value": 160785,
                    "unit": "cases",
                    "system": "http://unitsofmeasure.org",
                    "code": "{cases}"
                }
            }
        },
        {
            "fullUrl": "urn:uuid:a7fefe41-2725-4af2-8a85-247307962aa8",
            "resource": {
                "resourceType": "Observation",
                "id": "covid-deaths-15",
                "status": "final",
                "category": [
                    {
                        "coding": [
                            {
                                "system": "http://terminology.hl7.org/CodeSystem/observation-category",
                                "code": "laboratory"
                            }
                        ]
                    }
                ],
                "code": {
                    "coding": [
                        {
                            "system": "http://loinc.org",
                            "code": "94762-2",
                            "display": "COVID-19 deaths"
                        }
                    ]
                },
                "subject": {
                    "reference": "Location/location-15"
                },
                "issued": "2024-01-22T18:27:10.660605+00:00",
                "valueQuantity": {
                    "value": 25095,
                    "unit": "deaths",
                    "system": "http://unitsofmeasure.org",
                    "code": "{deaths}"
                }
            }
        },
        {
            "fullUrl": "urn:uuid:7513395a-5af1-4801-92ce-3c2250929103",
            "resource": {
                "resourceType": "Location",
                "id": "location-16",
                "name": "Wuppertal"
            }
        },
        {
            "fullUrl": "urn:uuid:59764244-8d33-4f00-84cf-c365e4da56c9",
            "resource": {
                "resourceType": "Observation",
                "id": "covid-cases-16",
                "status": "final",
                "category": [
                    {
                        "coding": [
                            {
                                "system": "http://terminology.hl7.org/CodeSystem/observation-category",
                                "code": "laboratory"
                            }
                        ]
                    }
                ],
                "code": {
                    "coding": [
                        {
                            "system": "http://loinc.org",
                            "code": "94500-6",
                            "display": "COVID-19 cases"
                        }
                    ]
                },
                "subject": {
                    "reference": "Location/location-16"
                },
                "issued": "2024-01-22T18:27:10.661663+00:00",
                "valueQuantity": {
                    "value": 180743,
                    "unit": "cases",
                    "system": "http://unitsofmeasure.org",
                    "code": "{cases}"
                }
            }
        },
        {
            "fullUrl": "urn:uuid:126c9cf0-a279-4f71-9331-a44f365b46f7",
            "resource": {
                "resourceType": "Observation",
                "id": "covid-deaths-16",
                "status": "final",
                "category": [
                    {
                        "coding": [
                            {
                                "system": "http://terminology.hl7.org/CodeSystem/observation-category",
                                "code": "laboratory"
                            }
                        ]
                    }
                ],
                "code": {
                    "coding": [
                        {
                            "system": "http://loinc.org",
                            "code": "94762-2",
                            "display": "COVID-19 deaths"
                        }
                    ]
                },
                "subject": {
                    "reference": "Location/location-16"
                },
                "issued": "2024-01-22T18:27:10.661663+00:00",
                "valueQuantity": {
                    "value": 36286,
                    "unit": "deaths",
                    "system": "http://unitsofmeasure.org",
                    "code": "{deaths}"
                }
            }
        },
        {
            "fullUrl": "urn:uuid:1dcf8b47-02c9-49af-aaf5-a1e47c9aacac",
            "resource": {
                "resourceType": "Location",
                "id": "location-17",
                "name": "Bielefeld"
            }
        },
        {
            "fullUrl": "urn:uuid:4fbcc218-1e63-402b-bbf7-e1f3cdf4ec9f",
            "resource": {
                "resourceType": "Observation",
                "id": "covid-cases-17",
                "status": "final",
                "category": [
                    {
                        "coding": [
                            {
                                "system": "http://terminology.hl7.org/CodeSystem/observation-category",
                                "code": "laboratory"
                            }
                        ]
                    }
                ],
                "code": {
                    "coding": [
                        {
                            "system": "http://loinc.org",
                            "code": "94500-6",
                            "display": "COVID-19 cases"
                        }
                    ]
                },
                "subject": {
                    "reference": "Location/location-17"
                },
                "issued": "2024-01-22T18:27:10.662704+00:00",
                "valueQuantity": {
                    "value": 173500,
                    "unit": "cases",
                    "system": "http://unitsofmeasure.org",
                    "code": "{cases}"
                }
            }
        },
        {
            "fullUrl": "urn:uuid:61edf6fd-b376-446b-820e-d37b0559c438",
            "resource": {
                "resourceType": "Observation",
                "id": "covid-deaths-17",
                "status": "final",
                "category": [
                    {
                        "coding": [
                            {
                                "system": "http://terminology.hl7.org/CodeSystem/observation-category",
                                "code": "laboratory"
                            }
                        ]
                    }
                ],
                "code": {
                    "coding": [
                        {
                            "system": "http://loinc.org",
                            "code": "94762-2",
                            "display": "COVID-19 deaths"
                        }
                    ]
                },
                "subject": {
                    "reference": "Location/location-17"
                },
                "issued": "2024-01-22T18:27:10.662704+00:00",
                "valueQuantity": {
                    "value": 34894,
                    "unit": "deaths",
                    "system": "http://unitsofmeasure.org",
                    "code": "{deaths}"
                }
            }
        },
        {
            "fullUrl": "urn:uuid:adf7180f-9272-4940-992f-1ba67170d58f",
            "resource": {
                "resourceType": "Location",
                "id": "location-18",
                "name": "Bonn"
            }
        },
        {
            "fullUrl": "urn:uuid:0bfd1146-55a8-4bc7-a03b-28f8732c6d36",
            "resource": {
                "resourceType": "Observation",
                "id": "covid-cases-18",
                "status": "final",
                "category": [
                    {
                        "coding": [
                            {
                                "system": "http://terminology.hl7.org/CodeSystem/observation-category",
                                "code": "laboratory"
                            }
                        ]
                    }
                ],
                "code": {
                    "coding": [
                        {
                            "system": "http://loinc.org",
                            "code": "94500-6",
                            "display": "COVID-19 cases"
                        }
                    ]
                },
                "subject": {
                    "reference": "Location/location-18"
                },
                "issued": "2024-01-22T18:27:10.663799+00:00",
                "valueQuantity": {
                    "value": 165420,
                    "unit": "cases",
                    "system": "http://unitsofmeasure.org",
                    "code": "{cases}"
                }
            }
        },
        {
            "fullUrl": "urn:uuid:8febfdc0-1a0d-4109-9407-abdd92b93f0f",
            "resource": {
                "resourceType": "Observation",
                "id": "covid-deaths-18",
                "status": "final",
                "category": [
                    {
                        "coding": [
                            {
                                "system": "http://terminology.hl7.org/CodeSystem/observation-category",
                                "code": "laboratory"
                            }
                        ]
                    }
                ],
                "code": {
                    "coding": [
                        {
                            "system": "http://loinc.org",
                            "code": "94762-2",
                            "display": "COVID-19 deaths"
                        }
                    ]
                },
                "subject": {
                    "reference": "Location/location-18"
                },
                "issued": "2024-01-22T18:27:10.663799+00:00",
                "valueQuantity": {
                    "value": 23484,
                    "unit": "deaths",
                    "system": "http://unitsofmeasure.org",
                    "code": "{deaths}"
                }
            }
        },
        {
            "fullUrl": "urn:uuid:ea476392-1ee2-46e4-bf93-137dd93d174d",
            "resource": {
                "resourceType": "Location",
                "id": "location-19",
                "name": "Munster"
            }
        },
        {
            "fullUrl": "urn:uuid:e7433849-afa8-4c86-ac68-3384e501b796",
            "resource": {
                "resourceType": "Observation",
                "id": "covid-cases-19",
                "status": "final",
                "category": [
                    {
                        "coding": [
                            {
                                "system": "http://terminology.hl7.org/CodeSystem/observation-category",
                                "code": "laboratory"
                            }
                        ]
                    }
                ],
                "code": {
                    "coding": [
                        {
                            "system": "http://loinc.org",
                            "code": "94500-6",
                            "display": "COVID-19 cases"
                        }
                    ]
                },
                "subject": {
                    "reference": "Location/location-19"
                },
                "issued": "2024-01-22T18:27:10.664855+00:00",
                "valueQuantity": {
                    "value": 100345,
                    "unit": "cases",
                    "system": "http://unitsofmeasure.org",
                    "code": "{cases}"
                }
            }
        },
        {
            "fullUrl": "urn:uuid:18dc1d89-69bf-403b-a02a-0946de347f5a",
            "resource": {
                "resourceType": "Observation",
                "id": "covid-deaths-19",
                "status": "final",
                "category": [
                    {
                        "coding": [
                            {
                                "system": "http://terminology.hl7.org/CodeSystem/observation-category",
                                "code": "laboratory"
                            }
                        ]
                    }
                ],
                "code": {
                    "coding": [
                        {
                            "system": "http://loinc.org",
                            "code": "94762-2",
                            "display": "COVID-19 deaths"
                        }
                    ]
                },
                "subject": {
                    "reference": "Location/location-19"
                },
                "issued": "2024-01-22T18:27:10.664855+00:00",
                "valueQuantity": {
                    "value": 28071,
                    "unit": "deaths",
                    "system": "http://unitsofmeasure.org",
                    "code": "{deaths}"
                }
            }
        },
        {
            "fullUrl": "urn:uuid:65992858-1483-4d60-ac6b-e8ca9fdb5149",
            "resource": {
                "resourceType": "Location",
                "id": "location-20",
                "name": "Mannheim"
            }
        },
        {
            "fullUrl": "urn:uuid:48888bb9-d8fa-411d-9848-5a3c5e7d79e4",
            "resource": {
                "resourceType": "Observation",
                "id": "covid-cases-20",
                "status": "final",
                "category": [
                    {
                        "coding": [
                            {
                                "system": "http://terminology.hl7.org/CodeSystem/observation-category",
                                "code": "laboratory"
                            }
                        ]
                    }
                ],
                "code": {
                    "coding": [
                        {
                            "system": "http://loinc.org",
                            "code": "94500-6",
                            "display": "COVID-19 cases"
                        }
                    ]
                },
                "subject": {
                    "reference": "Location/location-20"
                },
                "issued": "2024-01-22T18:27:10.665906+00:00",
                "valueQuantity": {
                    "value": 110785,
                    "unit": "cases",
                    "system": "http://unitsofmeasure.org",
                    "code": "{cases}"
                }
            }
        },
        {
            "fullUrl": "urn:uuid:36d41c4a-f5d0-40f2-8d7a-12fa1e08fbdc",
            "resource": {
                "resourceType": "Observation",
                "id": "covid-deaths-20",
                "status": "final",
                "category": [
                    {
                        "coding": [
                            {
                                "system": "http://terminology.hl7.org/CodeSystem/observation-category",
                                "code": "laboratory"
                            }
                        ]
                    }
                ],
                "code": {
                    "coding": [
                        {
                            "system": "http://loinc.org",
                            "code": "94762-2",
                            "display": "COVID-19 deaths"
                        }
                    ]
                },
                "subject": {
                    "reference": "Location/location-20"
                },
                "issued": "2024-01-22T18:27:10.665906+00:00",
                "valueQuantity": {
                    "value": 16017,
                    "unit": "deaths",
                    "system": "http://unitsofmeasure.org",
                    "code": "{deaths}"
                }
            }
        },
        {
            "fullUrl": "urn:uuid:7326fa7c-ad8c-4fbe-a13c-ce8704c48c10",
            "resource": {
                "resourceType": "Location",
                "id": "location-21",
                "name": "Karlsruhe"
            }
        },
        {
            "fullUrl": "urn:uuid:f1f90d51-3a59-40b4-af6c-547e72bc130e",
            "resource": {
                "resourceType": "Observation",
                "id": "covid-cases-21",
                "status": "final",
                "category": [
                    {
                        "coding": [
                            {
                                "system": "http://terminology.hl7.org/CodeSystem/observation-category",
                                "code": "laboratory"
                            }
                        ]
                    }
                ],
                "code": {
                    "coding": [
                        {
                            "system": "http://loinc.org",
                            "code": "94500-6",
                            "display": "COVID-19 cases"
                        }
                    ]
                },
                "subject": {
                    "reference": "Location/location-21"
                },
                "issued": "2024-01-22T18:27:10.667077+00:00",
                "valueQuantity": {
                    "value": 160142,
                    "unit": "cases",
                    "system": "http://unitsofmeasure.org",
                    "code": "{cases}"
                }
            }
        },
        {
            "fullUrl": "urn:uuid:81edfca3-882a-43c9-96e1-8c2d0bc5c993",
            "resource": {
                "resourceType": "Observation",
                "id": "covid-deaths-21",
                "status": "final",
                "category": [
                    {
                        "coding": [
                            {
                                "system": "http://terminology.hl7.org/CodeSystem/observation-category",
                                "code": "laboratory"
                            }
                        ]
                    }
                ],
                "code": {
                    "coding": [
                        {
                            "system": "http://loinc.org",
                            "code": "94762-2",
                            "display": "COVID-19 deaths"
                        }
                    ]
                },
                "subject": {
                    "reference": "Location/location-21"
                },
                "issued": "2024-01-22T18:27:10.667077+00:00",
                "valueQuantity": {
                    "value": 10149,
                    "unit": "deaths",
                    "system": "http://unitsofmeasure.org",
                    "code": "{deaths}"
                }
            }
        },
        {
            "fullUrl": "urn:uuid:5af37416-5d11-44d0-b91e-89fb89f3ba60",
            "resource": {
                "resourceType": "Location",
                "id": "location-22",
                "name": "Augsburg"
            }
        },
        {
            "fullUrl": "urn:uuid:8a29e25f-c2bd-47e7-9cda-ff1e069e46ad",
            "resource": {
                "resourceType": "Observation",
                "id": "covid-cases-22",
                "status": "final",
                "category": [
                    {
                        "coding": [
                            {
                                "system": "http://terminology.hl7.org/CodeSystem/observation-category",
                                "code": "laboratory"
                            }
                        ]
                    }
                ],
                "code": {
                    "coding": [
                        {
                            "system": "http://loinc.org",
                            "code": "94500-6",
                            "display": "COVID-19 cases"
                        }
                    ]
                },
                "subject": {
                    "reference": "Location/location-22"
                },
                "issued": "2024-01-22T18:27:10.668119+00:00",
                "valueQuantity": {
                    "value": 73500,
                    "unit": "cases",
                    "system": "http://unitsofmeasure.org",
                    "code": "{cases}"
                }
            }
        },
        {
            "fullUrl": "urn:uuid:d38d81fa-ff82-4b1b-8594-72d42141600e",
            "resource": {
                "resourceType": "Observation",
                "id": "covid-deaths-22",
                "status": "final",
                "category": [
                    {
                        "coding": [
                            {
                                "system": "http://terminology.hl7.org/CodeSystem/observation-category",
                                "code": "laboratory"
                            }
                        ]
                    }
                ],
                "code": {
                    "coding": [
                        {
                            "system": "http://loinc.org",
                            "code": "94762-2",
                            "display": "COVID-19 deaths"
                        }
                    ]
                },
                "subject": {
                    "reference": "Location/location-22"
                },
                "issued": "2024-01-22T18:27:10.668119+00:00",
                "valueQuantity": {
                    "value": 28219,
                    "unit": "deaths",
                    "system": "http://unitsofmeasure.org",
                    "code": "{deaths}"
                }
            }
        },
        {
            "fullUrl": "urn:uuid:561008aa-a645-467d-affe-54669b0cbed3",
            "resource": {
                "resourceType": "Location",
                "id": "location-23",
                "name": "Wiesbaden"
            }
        },
        {
            "fullUrl": "urn:uuid:a6560c52-1234-45bf-bcef-2f5f1d75b6fc",
            "resource": {
                "resourceType": "Observation",
                "id": "covid-cases-23",
                "status": "final",
                "category": [
                    {
                        "coding": [
                            {
                                "system": "http://terminology.hl7.org/CodeSystem/observation-category",
                                "code": "laboratory"
                            }
                        ]
                    }
                ],
                "code": {
                    "coding": [
                        {
                            "system": "http://loinc.org",
                            "code": "94500-6",
                            "display": "COVID-19 cases"
                        }
                    ]
                },
                "subject": {
                    "reference": "Location/location-23"
                },
                "issued": "2024-01-22T18:27:10.669922+00:00",
                "valueQuantity": {
                    "value": 65420,
                    "unit": "cases",
                    "system": "http://unitsofmeasure.org",
                    "code": "{cases}"
                }
            }
        },
        {
            "fullUrl": "urn:uuid:760cc120-be64-45c0-ac95-32268b7f53e0",
            "resource": {
                "resourceType": "Observation",
                "id": "covid-deaths-23",
                "status": "final",
                "category": [
                    {
                        "coding": [
                            {
                                "system": "http://terminology.hl7.org/CodeSystem/observation-category",
                                "code": "laboratory"
                            }
                        ]
                    }
                ],
                "code": {
                    "coding": [
                        {
                            "system": "http://loinc.org",
                            "code": "94762-2",
                            "display": "COVID-19 deaths"
                        }
                    ]
                },
                "subject": {
                    "reference": "Location/location-23"
                },
                "issued": "2024-01-22T18:27:10.669922+00:00",
                "valueQuantity": {
                    "value": 41903,
                    "unit": "deaths",
                    "system": "http://unitsofmeasure.org",
                    "code": "{deaths}"
                }
            }
        },
        {
            "fullUrl": "urn:uuid:a37942d3-5e92-410b-a0aa-76a400f8c571",
            "resource": {
                "resourceType": "Location",
                "id": "location-24",
                "name": "Munchengladbach"
            }
        },
        {
            "fullUrl": "urn:uuid:2f19cadd-a158-4f2e-b316-aeb49723a515",
            "resource": {
                "resourceType": "Observation",
                "id": "covid-cases-24",
                "status": "final",
                "category": [
                    {
                        "coding": [
                            {
                                "system": "http://terminology.hl7.org/CodeSystem/observation-category",
                                "code": "laboratory"
                            }
                        ]
                    }
                ],
                "code": {
                    "coding": [
                        {
                            "system": "http://loinc.org",
                            "code": "94500-6",
                            "display": "COVID-19 cases"
                        }
                    ]
                },
                "subject": {
                    "reference": "Location/location-24"
                },
                "issued": "2024-01-22T18:27:10.671006+00:00",
                "valueQuantity": {
                    "value": 40345,
                    "unit": "cases",
                    "system": "http://unitsofmeasure.org",
                    "code": "{cases}"
                }
            }
        },
        {
            "fullUrl": "urn:uuid:eff606ec-af44-47fd-829d-73060ccc4d4c",
            "resource": {
                "resourceType": "Observation",
                "id": "covid-deaths-24",
                "status": "final",
                "category": [
                    {
                        "coding": [
                            {
                                "system": "http://terminology.hl7.org/CodeSystem/observation-category",
                                "code": "laboratory"
                            }
                        ]
                    }
                ],
                "code": {
                    "coding": [
                        {
                            "system": "http://loinc.org",
                            "code": "94762-2",
                            "display": "COVID-19 deaths"
                        }
                    ]
                },
                "subject": {
                    "reference": "Location/location-24"
                },
                "issued": "2024-01-22T18:27:10.671006+00:00",
                "valueQuantity": {
                    "value": 37652,
                    "unit": "deaths",
                    "system": "http://unitsofmeasure.org",
                    "code": "{deaths}"
                }
            }
        },
        {
            "fullUrl": "urn:uuid:dea09665-c882-40aa-8cea-e18379ab9f12",
            "resource": {
                "resourceType": "Location",
                "id": "location-25",
                "name": "Gelsenkirchen"
            }
        },
        {
            "fullUrl": "urn:uuid:2e2639cb-ee61-4d51-a886-5960bce9026d",
            "resource": {
                "resourceType": "Observation",
                "id": "covid-cases-25",
                "status": "final",
                "category": [
                    {
                        "coding": [
                            {
                                "system": "http://terminology.hl7.org/CodeSystem/observation-category",
                                "code": "laboratory"
                            }
                        ]
                    }
                ],
                "code": {
                    "coding": [
                        {
                            "system": "http://loinc.org",
                            "code": "94500-6",
                            "display": "COVID-19 cases"
                        }
                    ]
                },
                "subject": {
                    "reference": "Location/location-25"
                },
                "issued": "2024-01-22T18:27:10.672043+00:00",
                "valueQuantity": {
                    "value": 80500,
                    "unit": "cases",
                    "system": "http://unitsofmeasure.org",
                    "code": "{cases}"
                }
            }
        },
        {
            "fullUrl": "urn:uuid:8e59a138-0f9c-4614-a377-c59eeb3f974a",
            "resource": {
                "resourceType": "Observation",
                "id": "covid-deaths-25",
                "status": "final",
                "category": [
                    {
                        "coding": [
                            {
                                "system": "http://terminology.hl7.org/CodeSystem/observation-category",
                                "code": "laboratory"
                            }
                        ]
                    }
                ],
                "code": {
                    "coding": [
                        {
                            "system": "http://loinc.org",
                            "code": "94762-2",
                            "display": "COVID-19 deaths"
                        }
                    ]
                },
                "subject": {
                    "reference": "Location/location-25"
                },
                "issued": "2024-01-22T18:27:10.672043+00:00",
                "valueQuantity": {
                    "value": 13021,
                    "unit": "deaths",
                    "system": "http://unitsofmeasure.org",
                    "code": "{deaths}"
                }
            }
        },
        {
            "fullUrl": "urn:uuid:62fdecbe-cd1a-43f5-ab1b-c829dfc6a297",
            "resource": {
                "resourceType": "Location",
                "id": "location-26",
                "name": "Aachen"
            }
        },
        {
            "fullUrl": "urn:uuid:d722551d-55d2-499b-a70b-5f874109edbe",
            "resource": {
                "resourceType": "Observation",
                "id": "covid-cases-26",
                "status": "final",
                "category": [
                    {
                        "coding": [
                            {
                                "system": "http://terminology.hl7.org/CodeSystem/observation-category",
                                "code": "laboratory"
                            }
                        ]
                    }
                ],
                "code": {
                    "coding": [
                        {
                            "system": "http://loinc.org",
                            "code": "94500-6",
                            "display": "COVID-19 cases"
                        }
                    ]
                },
                "subject": {
                    "reference": "Location/location-26"
                },
                "issued": "2024-01-22T18:27:10.673075+00:00",
                "valueQuantity": {
                    "value": 23500,
                    "unit": "cases",
                    "system": "http://unitsofmeasure.org",
                    "code": "{cases}"
                }
            }
        },
        {
            "fullUrl": "urn:uuid:75cc3e2c-692f-46f6-b744-551093b21f5a",
            "resource": {
                "resourceType": "Observation",
                "id": "covid-deaths-26",
                "status": "final",
                "category": [
                    {
                        "coding": [
                            {
                                "system": "http://terminology.hl7.org/CodeSystem/observation-category",
                                "code": "laboratory"
                            }
                        ]
                    }
                ],
                "code": {
                    "coding": [
                        {
                            "system": "http://loinc.org",
                            "code": "94762-2",
                            "display": "COVID-19 deaths"
                        }
                    ]
                },
                "subject": {
                    "reference": "Location/location-26"
                },
                "issued": "2024-01-22T18:27:10.673075+00:00",
                "valueQuantity": {
                    "value": 44514,
                    "unit": "deaths",
                    "system": "http://unitsofmeasure.org",
                    "code": "{deaths}"
                }
            }
        },
        {
            "fullUrl": "urn:uuid:fdad0087-aacc-4327-82b3-c5a4298a4e45",
            "resource": {
                "resourceType": "Location",
                "id": "location-27",
                "name": "Braunschweig"
            }
        },
        {
            "fullUrl": "urn:uuid:b5653824-0f2c-4dad-90fe-6ecb0f62d4cc",
            "resource": {
                "resourceType": "Observation",
                "id": "covid-cases-27",
                "status": "final",
                "category": [
                    {
                        "coding": [
                            {
                                "system": "http://terminology.hl7.org/CodeSystem/observation-category",
                                "code": "laboratory"
                            }
                        ]
                    }
                ],
                "code": {
                    "coding": [
                        {
                            "system": "http://loinc.org",
                            "code": "94500-6",
                            "display": "COVID-19 cases"
                        }
                    ]
                },
                "subject": {
                    "reference": "Location/location-27"
                },
                "issued": "2024-01-22T18:27:10.674112+00:00",
                "valueQuantity": {
                    "value": 15420,
                    "unit": "cases",
                    "system": "http://unitsofmeasure.org",
                    "code": "{cases}"
                }
            }
        },
        {
            "fullUrl": "urn:uuid:3646471b-c68f-4b0e-878f-2233e4888b42",
            "resource": {
                "resourceType": "Observation",
                "id": "covid-deaths-27",
                "status": "final",
                "category": [
                    {
                        "coding": [
                            {
                                "system": "http://terminology.hl7.org/CodeSystem/observation-category",
                                "code": "laboratory"
                            }
                        ]
                    }
                ],
                "code": {
                    "coding": [
                        {
                            "system": "http://loinc.org",
                            "code": "94762-2",
                            "display": "COVID-19 deaths"
                        }
                    ]
                },
                "subject": {
                    "reference": "Location/location-27"
                },
                "issued": "2024-01-22T18:27:10.674112+00:00",
                "valueQuantity": {
                    "value": 12847,
                    "unit": "deaths",
                    "system": "http://unitsofmeasure.org",
                    "code": "{deaths}"
                }
            }
        },
        {
            "fullUrl": "urn:uuid:4aa47323-82dd-4fe1-a6e7-98e9e38847c3",
            "resource": {
                "resourceType": "Location",
                "id": "location-28",
                "name": "Chemnitz"
            }
        },
        {
            "fullUrl": "urn:uuid:baf2bcab-5515-4872-b12d-12378feedd4b",
            "resource": {
                "resourceType": "Observation",
                "id": "covid-cases-28",
                "status": "final",
                "category": [
                    {
                        "coding": [
                            {
                                "system": "http://terminology.hl7.org/CodeSystem/observation-category",
                                "code": "laboratory"
                            }
                        ]
                    }
                ],
                "code": {
                    "coding": [
                        {
                            "system": "http://loinc.org",
                            "code": "94500-6",
                            "display": "COVID-19 cases"
                        }
                    ]
                },
                "subject": {
                    "reference": "Location/location-28"
                },
                "issued": "2024-01-22T18:27:10.675162+00:00",
                "valueQuantity": {
                    "value": 52745,
                    "unit": "cases",
                    "system": "http://unitsofmeasure.org",
                    "code": "{cases}"
                }
            }
        },
        {
            "fullUrl": "urn:uuid:50cdece1-c015-41e0-b990-9b8fabb87dcd",
            "resource": {
                "resourceType": "Observation",
                "id": "covid-deaths-28",
                "status": "final",
                "category": [
                    {
                        "coding": [
                            {
                                "system": "http://terminology.hl7.org/CodeSystem/observation-category",
                                "code": "laboratory"
                            }
                        ]
                    }
                ],
                "code": {
                    "coding": [
                        {
                            "system": "http://loinc.org",
                            "code": "94762-2",
                            "display": "COVID-19 deaths"
                        }
                    ]
                },
                "subject": {
                    "reference": "Location/location-28"
                },
                "issued": "2024-01-22T18:27:10.675162+00:00",
                "valueQuantity": {
                    "value": 33835,
                    "unit": "deaths",
                    "system": "http://unitsofmeasure.org",
                    "code": "{deaths}"
                }
            }
        },
        {
            "fullUrl": "urn:uuid:3ac91914-92be-4bf4-af7b-4f1f797f2b66",
            "resource": {
                "resourceType": "Location",
                "id": "location-29",
                "name": "Kiel"
            }
        },
        {
            "fullUrl": "urn:uuid:294b7e0c-c996-4f0e-a5f9-43bff1088b2d",
            "resource": {
                "resourceType": "Observation",
                "id": "covid-cases-29",
                "status": "final",
                "category": [
                    {
                        "coding": [
                            {
                                "system": "http://terminology.hl7.org/CodeSystem/observation-category",
                                "code": "laboratory"
                            }
                        ]
                    }
                ],
                "code": {
                    "coding": [
                        {
                            "system": "http://loinc.org",
                            "code": "94500-6",
                            "display": "COVID-19 cases"
                        }
                    ]
                },
                "subject": {
                    "reference": "Location/location-29"
                },
                "issued": "2024-01-22T18:27:10.676193+00:00",
                "valueQuantity": {
                    "value": 22570,
                    "unit": "cases",
                    "system": "http://unitsofmeasure.org",
                    "code": "{cases}"
                }
            }
        },
        {
            "fullUrl": "urn:uuid:76a27ba9-bc35-4b9a-9ec3-04380d4efd90",
            "resource": {
                "resourceType": "Observation",
                "id": "covid-deaths-29",
                "status": "final",
                "category": [
                    {
                        "coding": [
                            {
                                "system": "http://terminology.hl7.org/CodeSystem/observation-category",
                                "code": "laboratory"
                            }
                        ]
                    }
                ],
                "code": {
                    "coding": [
                        {
                            "system": "http://loinc.org",
                            "code": "94762-2",
                            "display": "COVID-19 deaths"
                        }
                    ]
                },
                "subject": {
                    "reference": "Location/location-29"
                },
                "issued": "2024-01-22T18:27:10.676193+00:00",
                "valueQuantity": {
                    "value": 46183,
                    "unit": "deaths",
                    "system": "http://unitsofmeasure.org",
                    "code": "{deaths}"
                }
            }
        },
        {
            "fullUrl": "urn:uuid:32a4ce1d-58d4-4f69-a45e-609d9dcf3b0e",
            "resource": {
                "resourceType": "Location",
                "id": "location-30",
                "name": "Halle"
            }
        },
        {
            "fullUrl": "urn:uuid:de5e9210-3aa2-4f95-8785-a8d106088710",
            "resource": {
                "resourceType": "Observation",
                "id": "covid-cases-30",
                "status": "final",
                "category": [
                    {
                        "coding": [
                            {
                                "system": "http://terminology.hl7.org/CodeSystem/observation-category",
                                "code": "laboratory"
                            }
                        ]
                    }
                ],
                "code": {
                    "coding": [
                        {
                            "system": "http://loinc.org",
                            "code": "94500-6",
                            "display": "COVID-19 cases"
                        }
                    ]
                },
                "subject": {
                    "reference": "Location/location-30"
                },
                "issued": "2024-01-22T18:27:10.677218+00:00",
                "valueQuantity": {
                    "value": 33578,
                    "unit": "cases",
                    "system": "http://unitsofmeasure.org",
                    "code": "{cases}"
                }
            }
        },
        {
            "fullUrl": "urn:uuid:9713505f-6e5e-41f7-ac25-b9308cd4aab9",
            "resource": {
                "resourceType": "Observation",
                "id": "covid-deaths-30",
                "status": "final",
                "category": [
                    {
                        "coding": [
                            {
                                "system": "http://terminology.hl7.org/CodeSystem/observation-category",
                                "code": "laboratory"
                            }
                        ]
                    }
                ],
                "code": {
                    "coding": [
                        {
                            "system": "http://loinc.org",
                            "code": "94762-2",
                            "display": "COVID-19 deaths"
                        }
                    ]
                },
                "subject": {
                    "reference": "Location/location-30"
                },
                "issued": "2024-01-22T18:27:10.677218+00:00",
                "valueQuantity": {
                    "value": 32254,
                    "unit": "deaths",
                    "system": "http://unitsofmeasure.org",
                    "code": "{deaths}"
                }
            }
        },
        {
            "fullUrl": "urn:uuid:d48553fa-4269-4d7b-94e5-94364729ab9c",
            "resource": {
                "resourceType": "Location",
                "id": "location-31",
                "name": "Magdeburg"
            }
        },
        {
            "fullUrl": "urn:uuid:ec9d97ce-c05d-4794-92fc-3757cc8f0671",
            "resource": {
                "resourceType": "Observation",
                "id": "covid-cases-31",
                "status": "final",
                "category": [
                    {
                        "coding": [
                            {
                                "system": "http://terminology.hl7.org/CodeSystem/observation-category",
                                "code": "laboratory"
                            }
                        ]
                    }
                ],
                "code": {
                    "coding": [
                        {
                            "system": "http://loinc.org",
                            "code": "94500-6",
                            "display": "COVID-19 cases"
                        }
                    ]
                },
                "subject": {
                    "reference": "Location/location-31"
                },
                "issued": "2024-01-22T18:27:10.678254+00:00",
                "valueQuantity": {
                    "value": 32470,
                    "unit": "cases",
                    "system": "http://unitsofmeasure.org",
                    "code": "{cases}"
                }
            }
        },
        {
            "fullUrl": "urn:uuid:e8c16985-6e76-4a61-9e89-c226ff30815b",
            "resource": {
                "resourceType": "Observation",
                "id": "covid-deaths-31",
                "status": "final",
                "category": [
                    {
                        "coding": [
                            {
                                "system": "http://terminology.hl7.org/CodeSystem/observation-category",
                                "code": "laboratory"
                            }
                        ]
                    }
                ],
                "code": {
                    "coding": [
                        {
                            "system": "http://loinc.org",
                            "code": "94762-2",
                            "display": "COVID-19 deaths"
                        }
                    ]
                },
                "subject": {
                    "reference": "Location/location-31"
                },
                "issued": "2024-01-22T18:27:10.678254+00:00",
                "valueQuantity": {
                    "value": 39408,
                    "unit": "deaths",
                    "system": "http://unitsofmeasure.org",
                    "code": "{deaths}"
                }
            }
        },
        {
            "fullUrl": "urn:uuid:0bc8af84-4233-4507-9e63-3f5b2f983da0",
            "resource": {
                "resourceType": "Location",
                "id": "location-32",
                "name": "Freiburg im Breisgau"
            }
        },
        {
            "fullUrl": "urn:uuid:9d460dfd-d0fe-4590-b684-ef4bf40f3928",
            "resource": {
                "resourceType": "Observation",
                "id": "covid-cases-32",
                "status": "final",
                "category": [
                    {
                        "coding": [
                            {
                                "system": "http://terminology.hl7.org/CodeSystem/observation-category",
                                "code": "laboratory"
                            }
                        ]
                    }
                ],
                "code": {
                    "coding": [
                        {
                            "system": "http://loinc.org",
                            "code": "94500-6",
                            "display": "COVID-19 cases"
                        }
                    ]
                },
                "subject": {
                    "reference": "Location/location-32"
                },
                "issued": "2024-01-22T18:27:10.679328+00:00",
                "valueQuantity": {
                    "value": 29540,
                    "unit": "cases",
                    "system": "http://unitsofmeasure.org",
                    "code": "{cases}"
                }
            }
        },
        {
            "fullUrl": "urn:uuid:e210f87a-1bde-4285-be6b-79c6ad78021a",
            "resource": {
                "resourceType": "Observation",
                "id": "covid-deaths-32",
                "status": "final",
                "category": [
                    {
                        "coding": [
                            {
                                "system": "http://terminology.hl7.org/CodeSystem/observation-category",
                                "code": "laboratory"
                            }
                        ]
                    }
                ],
                "code": {
                    "coding": [
                        {
                            "system": "http://loinc.org",
                            "code": "94762-2",
                            "display": "COVID-19 deaths"
                        }
                    ]
                },
                "subject": {
                    "reference": "Location/location-32"
                },
                "issued": "2024-01-22T18:27:10.679328+00:00",
                "valueQuantity": {
                    "value": 13829,
                    "unit": "deaths",
                    "system": "http://unitsofmeasure.org",
                    "code": "{deaths}"
                }
            }
        },
        {
            "fullUrl": "urn:uuid:f6d76ec7-9c5a-4a04-9d2e-1de6fff99930",
            "resource": {
                "resourceType": "Location",
                "id": "location-33",
                "name": "Krefeld"
            }
        },
        {
            "fullUrl": "urn:uuid:4f17e656-6393-4653-8488-26ef5c501283",
            "resource": {
                "resourceType": "Observation",
                "id": "covid-cases-33",
                "status": "final",
                "category": [
                    {
                        "coding": [
                            {
                                "system": "http://terminology.hl7.org/CodeSystem/observation-category",
                                "code": "laboratory"
                            }
                        ]
                    }
                ],
                "code": {
                    "coding": [
                        {
                            "system": "http://loinc.org",
                            "code": "94500-6",
                            "display": "COVID-19 cases"
                        }
                    ]
                },
                "subject": {
                    "reference": "Location/location-33"
                },
                "issued": "2024-01-22T18:27:10.680377+00:00",
                "valueQuantity": {
                    "value": 26810,
                    "unit": "cases",
                    "system": "http://unitsofmeasure.org",
                    "code": "{cases}"
                }
            }
        },
        {
            "fullUrl": "urn:uuid:3e4d363d-b430-438c-8543-e146ee32102b",
            "resource": {
                "resourceType": "Observation",
                "id": "covid-deaths-33",
                "status": "final",
                "category": [
                    {
                        "coding": [
                            {
                                "system": "http://terminology.hl7.org/CodeSystem/observation-category",
                                "code": "laboratory"
                            }
                        ]
                    }
                ],
                "code": {
                    "coding": [
                        {
                            "system": "http://loinc.org",
                            "code": "94762-2",
                            "display": "COVID-19 deaths"
                        }
                    ]
                },
                "subject": {
                    "reference": "Location/location-33"
                },
                "issued": "2024-01-22T18:27:10.680377+00:00",
                "valueQuantity": {
                    "value": 30988,
                    "unit": "deaths",
                    "system": "http://unitsofmeasure.org",
                    "code": "{deaths}"
                }
            }
        },
        {
            "fullUrl": "urn:uuid:87e526b1-2234-46df-8847-5d93a0e4f813",
            "resource": {
                "resourceType": "Location",
                "id": "location-34",
                "name": "Mainz"
            }
        },
        {
            "fullUrl": "urn:uuid:b8803c05-36f4-4bf2-ac46-2d933bd694ad",
            "resource": {
                "resourceType": "Observation",
                "id": "covid-cases-34",
                "status": "final",
                "category": [
                    {
                        "coding": [
                            {
                                "system": "http://terminology.hl7.org/CodeSystem/observation-category",
                                "code": "laboratory"
                            }
                        ]
                    }
                ],
                "code": {
                    "coding": [
                        {
                            "system": "http://loinc.org",
                            "code": "94500-6",
                            "display": "COVID-19 cases"
                        }
                    ]
                },
                "subject": {
                    "reference": "Location/location-34"
                },
                "issued": "2024-01-22T18:27:10.681427+00:00",
                "valueQuantity": {
                    "value": 15000,
                    "unit": "cases",
                    "system": "http://unitsofmeasure.org",
                    "code": "{cases}"
                }
            }
        },
        {
            "fullUrl": "urn:uuid:67d8f870-5f1f-4c05-95d3-b9d25e148cfd",
            "resource": {
                "resourceType": "Observation",
                "id": "covid-deaths-34",
                "status": "final",
                "category": [
                    {
                        "coding": [
                            {
                                "system": "http://terminology.hl7.org/CodeSystem/observation-category",
                                "code": "laboratory"
                            }
                        ]
                    }
                ],
                "code": {
                    "coding": [
                        {
                            "system": "http://loinc.org",
                            "code": "94762-2",
                            "display": "COVID-19 deaths"
                        }
                    ]
                },
                "subject": {
                    "reference": "Location/location-34"
                },
                "issued": "2024-01-22T18:27:10.681427+00:00",
                "valueQuantity": {
                    "value": 13520,
                    "unit": "deaths",
                    "system": "http://unitsofmeasure.org",
                    "code": "{deaths}"
                }
            }
        },
        {
            "fullUrl": "urn:uuid:347a3b29-0a8b-422a-bded-fa706abd512c",
            "resource": {
                "resourceType": "Location",
                "id": "location-35",
                "name": "Lubeck"
            }
        },
        {
            "fullUrl": "urn:uuid:8c7f777a-2835-43d2-955d-f66eca49bca7",
            "resource": {
                "resourceType": "Observation",
                "id": "covid-cases-35",
                "status": "final",
                "category": [
                    {
                        "coding": [
                            {
                                "system": "http://terminology.hl7.org/CodeSystem/observation-category",
                                "code": "laboratory"
                            }
                        ]
                    }
                ],
                "code": {
                    "coding": [
                        {
                            "system": "http://loinc.org",
                            "code": "94500-6",
                            "display": "COVID-19 cases"
                        }
                    ]
                },
                "subject": {
                    "reference": "Location/location-35"
                },
                "issued": "2024-01-22T18:27:10.682553+00:00",
                "valueQuantity": {
                    "value": 22890,
                    "unit": "cases",
                    "system": "http://unitsofmeasure.org",
                    "code": "{cases}"
                }
            }
        },
        {
            "fullUrl": "urn:uuid:0a98d20d-b42a-421a-9c69-1ceed1dab56c",
            "resource": {
                "resourceType": "Observation",
                "id": "covid-deaths-35",
                "status": "final",
                "category": [
                    {
                        "coding": [
                            {
                                "system": "http://terminology.hl7.org/CodeSystem/observation-category",
                                "code": "laboratory"
                            }
                        ]
                    }
                ],
                "code": {
                    "coding": [
                        {
                            "system": "http://loinc.org",
                            "code": "94762-2",
                            "display": "COVID-19 deaths"
                        }
                    ]
                },
                "subject": {
                    "reference": "Location/location-35"
                },
                "issued": "2024-01-22T18:27:10.682553+00:00",
                "valueQuantity": {
                    "value": 11359,
                    "unit": "deaths",
                    "system": "http://unitsofmeasure.org",
                    "code": "{deaths}"
                }
            }
        },
        {
            "fullUrl": "urn:uuid:b6d09727-57e7-4387-b7a9-1dfc43137a98",
            "resource": {
                "resourceType": "Location",
                "id": "location-36",
                "name": "Erfurt"
            }
        },
        {
            "fullUrl": "urn:uuid:30452d26-d999-40f9-ac88-a511594f2107",
            "resource": {
                "resourceType": "Observation",
                "id": "covid-cases-36",
                "status": "final",
                "category": [
                    {
                        "coding": [
                            {
                                "system": "http://terminology.hl7.org/CodeSystem/observation-category",
                                "code": "laboratory"
                            }
                        ]
                    }
                ],
                "code": {
                    "coding": [
                        {
                            "system": "http://loinc.org",
                            "code": "94500-6",
                            "display": "COVID-19 cases"
                        }
                    ]
                },
                "subject": {
                    "reference": "Location/location-36"
                },
                "issued": "2024-01-22T18:27:10.683646+00:00",
                "valueQuantity": {
                    "value": 24646,
                    "unit": "cases",
                    "system": "http://unitsofmeasure.org",
                    "code": "{cases}"
                }
            }
        },
        {
            "fullUrl": "urn:uuid:29908e5a-737a-4e16-b98f-48a9a9c40dda",
            "resource": {
                "resourceType": "Observation",
                "id": "covid-deaths-36",
                "status": "final",
                "category": [
                    {
                        "coding": [
                            {
                                "system": "http://terminology.hl7.org/CodeSystem/observation-category",
                                "code": "laboratory"
                            }
                        ]
                    }
                ],
                "code": {
                    "coding": [
                        {
                            "system": "http://loinc.org",
                            "code": "94762-2",
                            "display": "COVID-19 deaths"
                        }
                    ]
                },
                "subject": {
                    "reference": "Location/location-36"
                },
                "issued": "2024-01-22T18:27:10.683646+00:00",
                "valueQuantity": {
                    "value": 29231,
                    "unit": "deaths",
                    "system": "http://unitsofmeasure.org",
                    "code": "{deaths}"
                }
            }
        },
        {
            "fullUrl": "urn:uuid:441de1f6-b6a4-436d-8c43-2c3ccee4f1dc",
            "resource": {
                "resourceType": "Location",
                "id": "location-37",
                "name": "Oberhausen"
            }
        },
        {
            "fullUrl": "urn:uuid:8a1cfb96-98c1-47e2-940e-0e8bcfdb8c19",
            "resource": {
                "resourceType": "Observation",
                "id": "covid-cases-37",
                "status": "final",
                "category": [
                    {
                        "coding": [
                            {
                                "system": "http://terminology.hl7.org/CodeSystem/observation-category",
                                "code": "laboratory"
                            }
                        ]
                    }
                ],
                "code": {
                    "coding": [
                        {
                            "system": "http://loinc.org",
                            "code": "94500-6",
                            "display": "COVID-19 cases"
                        }
                    ]
                },
                "subject": {
                    "reference": "Location/location-37"
                },
                "issued": "2024-01-22T18:27:10.684670+00:00",
                "valueQuantity": {
                    "value": 40568,
                    "unit": "cases",
                    "system": "http://unitsofmeasure.org",
                    "code": "{cases}"
                }
            }
        },
        {
            "fullUrl": "urn:uuid:e332044e-de13-498f-afdf-c7e59cdac985",
            "resource": {
                "resourceType": "Observation",
                "id": "covid-deaths-37",
                "status": "final",
                "category": [
                    {
                        "coding": [
                            {
                                "system": "http://terminology.hl7.org/CodeSystem/observation-category",
                                "code": "laboratory"
                            }
                        ]
                    }
                ],
                "code": {
                    "coding": [
                        {
                            "system": "http://loinc.org",
                            "code": "94762-2",
                            "display": "COVID-19 deaths"
                        }
                    ]
                },
                "subject": {
                    "reference": "Location/location-37"
                },
                "issued": "2024-01-22T18:27:10.684670+00:00",
                "valueQuantity": {
                    "value": 25403,
                    "unit": "deaths",
                    "system": "http://unitsofmeasure.org",
                    "code": "{deaths}"
                }
            }
        },
        {
            "fullUrl": "urn:uuid:d62e6e67-2296-4f66-bd4d-5a5c45b56aa8",
            "resource": {
                "resourceType": "Location",
                "id": "location-38",
                "name": "Rostock"
            }
        },
        {
            "fullUrl": "urn:uuid:a6ef5832-f3f8-4e0c-afb0-6a5369438e45",
            "resource": {
                "resourceType": "Observation",
                "id": "covid-cases-38",
                "status": "final",
                "category": [
                    {
                        "coding": [
                            {
                                "system": "http://terminology.hl7.org/CodeSystem/observation-category",
                                "code": "laboratory"
                            }
                        ]
                    }
                ],
                "code": {
                    "coding": [
                        {
                            "system": "http://loinc.org",
                            "code": "94500-6",
                            "display": "COVID-19 cases"
                        }
                    ]
                },
                "subject": {
                    "reference": "Location/location-38"
                },
                "issued": "2024-01-22T18:27:10.685794+00:00",
                "valueQuantity": {
                    "value": 31950,
                    "unit": "cases",
                    "system": "http://unitsofmeasure.org",
                    "code": "{cases}"
                }
            }
        },
        {
            "fullUrl": "urn:uuid:a2f3c757-d54b-4ce7-b10e-e1b433757e05",
            "resource": {
                "resourceType": "Observation",
                "id": "covid-deaths-38",
                "status": "final",
                "category": [
                    {
                        "coding": [
                            {
                                "system": "http://terminology.hl7.org/CodeSystem/observation-category",
                                "code": "laboratory"
                            }
                        ]
                    }
                ],
                "code": {
                    "coding": [
                        {
                            "system": "http://loinc.org",
                            "code": "94762-2",
                            "display": "COVID-19 deaths"
                        }
                    ]
                },
                "subject": {
                    "reference": "Location/location-38"
                },
                "issued": "2024-01-22T18:27:10.685794+00:00",
                "valueQuantity": {
                    "value": 13567,
                    "unit": "deaths",
                    "system": "http://unitsofmeasure.org",
                    "code": "{deaths}"
                }
            }
        }
    ]
}